run_id,condition,success,timeout,failed_images,failed_audio,failed_video,trial_type,trial_index,time_elapsed,internal_node_id,rt,stimulus,response,task,correct_response,correct,recorded_at,ip,user_agent,device,browser,browser_version,platform,platform_version,source_code_version,subject_id,view_history,accuracy,screen_id,block
2,1,true,false,[],[],[],preload,0,261,0.0-0.0,"""","""","""","""","""","""",2021-10-13 18:15:00,128.12.122.214,"Mozilla/5.0 (Macintosh; Intel Mac OS X 10_15_7) AppleWebKit/605.1.15 (KHTML, like Gecko) Version/15.0 Safari/605.1.15",Macintosh,Safari,15.0,OS X,10_15_7,fb12ad719e7ed92c2c22d2cb7e300d98
2,1,true,false,[],[],[],preload,1,539,0.0-1.0,"""","""","""","""","""","""",2021-10-13 18:15:00,128.12.122.214,"Mozilla/5.0 (Macintosh; Intel Mac OS X 10_15_7) AppleWebKit/605.1.15 (KHTML, like Gecko) Version/15.0 Safari/605.1.15",Macintosh,Safari,15.0,OS X,10_15_7,fb12ad719e7ed92c2c22d2cb7e300d98
2,1,"""","""","""","""","""",html-keyboard-response,2,1480,0.0-2.0,941,Welcome to the experiment. Press any key to begin.,j,"""","""","""",2021-10-13 18:15:00,128.12.122.214,"Mozilla/5.0 (Macintosh; Intel Mac OS X 10_15_7) AppleWebKit/605.1.15 (KHTML, like Gecko) Version/15.0 Safari/605.1.15",Macintosh,Safari,15.0,OS X,10_15_7,fb12ad719e7ed92c2c22d2cb7e300d98
2,1,"""","""","""","""","""",html-keyboard-response,3,16759,0.0-3.0,15277,"
    <p>In this experiment, a circle will appear in the center 
    of the screen.</p><p>If the circle is <strong>green</strong>, 
    press the letter F on the keyboard as fast as you can.</p>
    <p>If the circle is <strong>orange</strong>, press the letter J 
    as fast as you can.</p>
    <div style='width: 700px;'>
    <div style='float: left;'><img src='img/green.png'></img>
    <p class='small'><strong>Press the F key</strong></p></div>
    <div class='float: right;'><img src='img/orange.png'></img>
    <p class='small'><strong>Press the J key</strong></p></div>
    </div>
    <p>Press any key to begin.</p>
  ",f,"""","""","""",2021-10-13 18:15:00,128.12.122.214,"Mozilla/5.0 (Macintosh; Intel Mac OS X 10_15_7) AppleWebKit/605.1.15 (KHTML, like Gecko) Version/15.0 Safari/605.1.15",Macintosh,Safari,15.0,OS X,10_15_7,fb12ad719e7ed92c2c22d2cb7e300d98
2,1,"""","""","""","""","""",html-keyboard-response,4,20263,0.0-4.0-0.0,null,"<div style=""font-size:60px;"">+</div>",null,fixation,"""","""",2021-10-13 18:15:00,128.12.122.214,"Mozilla/5.0 (Macintosh; Intel Mac OS X 10_15_7) AppleWebKit/605.1.15 (KHTML, like Gecko) Version/15.0 Safari/605.1.15",Macintosh,Safari,15.0,OS X,10_15_7,fb12ad719e7ed92c2c22d2cb7e300d98
2,1,"""","""","""","""","""",image-keyboard-response,5,20849,0.0-4.0-1.0,571,img/orange_left.png,j,response,j,true,2021-10-13 18:15:00,128.12.122.214,"Mozilla/5.0 (Macintosh; Intel Mac OS X 10_15_7) AppleWebKit/605.1.15 (KHTML, like Gecko) Version/15.0 Safari/605.1.15",Macintosh,Safari,15.0,OS X,10_15_7,fb12ad719e7ed92c2c22d2cb7e300d98
2,1,"""","""","""","""","""",html-keyboard-response,6,22101,0.0-4.0-0.1,null,"<div style=""font-size:60px;"">+</div>",null,fixation,"""","""",2021-10-13 18:15:00,128.12.122.214,"Mozilla/5.0 (Macintosh; Intel Mac OS X 10_15_7) AppleWebKit/605.1.15 (KHTML, like Gecko) Version/15.0 Safari/605.1.15",Macintosh,Safari,15.0,OS X,10_15_7,fb12ad719e7ed92c2c22d2cb7e300d98
2,1,"""","""","""","""","""",image-keyboard-response,7,22666,0.0-4.0-1.1,551,img/green_left.png,j,response,f,false,2021-10-13 18:15:00,128.12.122.214,"Mozilla/5.0 (Macintosh; Intel Mac OS X 10_15_7) AppleWebKit/605.1.15 (KHTML, like Gecko) Version/15.0 Safari/605.1.15",Macintosh,Safari,15.0,OS X,10_15_7,fb12ad719e7ed92c2c22d2cb7e300d98
2,1,"""","""","""","""","""",html-keyboard-response,8,23418,0.0-4.0-0.2,null,"<div style=""font-size:60px;"">+</div>",null,fixation,"""","""",2021-10-13 18:15:00,128.12.122.214,"Mozilla/5.0 (Macintosh; Intel Mac OS X 10_15_7) AppleWebKit/605.1.15 (KHTML, like Gecko) Version/15.0 Safari/605.1.15",Macintosh,Safari,15.0,OS X,10_15_7,fb12ad719e7ed92c2c22d2cb7e300d98
2,1,"""","""","""","""","""",image-keyboard-response,9,24044,0.0-4.0-1.2,613,img/orange_right.png,j,response,f,false,2021-10-13 18:15:00,128.12.122.214,"Mozilla/5.0 (Macintosh; Intel Mac OS X 10_15_7) AppleWebKit/605.1.15 (KHTML, like Gecko) Version/15.0 Safari/605.1.15",Macintosh,Safari,15.0,OS X,10_15_7,fb12ad719e7ed92c2c22d2cb7e300d98
2,1,"""","""","""","""","""",html-keyboard-response,10,24295,0.0-4.0-0.3,null,"<div style=""font-size:60px;"">+</div>",null,fixation,"""","""",2021-10-13 18:15:00,128.12.122.214,"Mozilla/5.0 (Macintosh; Intel Mac OS X 10_15_7) AppleWebKit/605.1.15 (KHTML, like Gecko) Version/15.0 Safari/605.1.15",Macintosh,Safari,15.0,OS X,10_15_7,fb12ad719e7ed92c2c22d2cb7e300d98
2,1,"""","""","""","""","""",image-keyboard-response,11,24982,0.0-4.0-1.3,674,img/green_right.png,f,response,j,false,2021-10-13 18:15:00,128.12.122.214,"Mozilla/5.0 (Macintosh; Intel Mac OS X 10_15_7) AppleWebKit/605.1.15 (KHTML, like Gecko) Version/15.0 Safari/605.1.15",Macintosh,Safari,15.0,OS X,10_15_7,fb12ad719e7ed92c2c22d2cb7e300d98
2,1,"""","""","""","""","""",html-keyboard-response,12,26484,0.0-4.0-0.4,null,"<div style=""font-size:60px;"">+</div>",null,fixation,"""","""",2021-10-13 18:15:00,128.12.122.214,"Mozilla/5.0 (Macintosh; Intel Mac OS X 10_15_7) AppleWebKit/605.1.15 (KHTML, like Gecko) Version/15.0 Safari/605.1.15",Macintosh,Safari,15.0,OS X,10_15_7,fb12ad719e7ed92c2c22d2cb7e300d98
2,1,"""","""","""","""","""",image-keyboard-response,13,27054,0.0-4.0-1.4,569,img/orange_right.png,j,response,f,false,2021-10-13 18:15:00,128.12.122.214,"Mozilla/5.0 (Macintosh; Intel Mac OS X 10_15_7) AppleWebKit/605.1.15 (KHTML, like Gecko) Version/15.0 Safari/605.1.15",Macintosh,Safari,15.0,OS X,10_15_7,fb12ad719e7ed92c2c22d2cb7e300d98
2,1,"""","""","""","""","""",html-keyboard-response,14,27807,0.0-4.0-0.5,null,"<div style=""font-size:60px;"">+</div>",null,fixation,"""","""",2021-10-13 18:15:00,128.12.122.214,"Mozilla/5.0 (Macintosh; Intel Mac OS X 10_15_7) AppleWebKit/605.1.15 (KHTML, like Gecko) Version/15.0 Safari/605.1.15",Macintosh,Safari,15.0,OS X,10_15_7,fb12ad719e7ed92c2c22d2cb7e300d98
2,1,"""","""","""","""","""",image-keyboard-response,15,28320,0.0-4.0-1.5,510,img/green_right.png,j,response,j,true,2021-10-13 18:15:00,128.12.122.214,"Mozilla/5.0 (Macintosh; Intel Mac OS X 10_15_7) AppleWebKit/605.1.15 (KHTML, like Gecko) Version/15.0 Safari/605.1.15",Macintosh,Safari,15.0,OS X,10_15_7,fb12ad719e7ed92c2c22d2cb7e300d98
2,1,"""","""","""","""","""",html-keyboard-response,16,30322,0.0-4.0-0.6,null,"<div style=""font-size:60px;"">+</div>",null,fixation,"""","""",2021-10-13 18:15:00,128.12.122.214,"Mozilla/5.0 (Macintosh; Intel Mac OS X 10_15_7) AppleWebKit/605.1.15 (KHTML, like Gecko) Version/15.0 Safari/605.1.15",Macintosh,Safari,15.0,OS X,10_15_7,fb12ad719e7ed92c2c22d2cb7e300d98
2,1,"""","""","""","""","""",image-keyboard-response,17,30892,0.0-4.0-1.6,569,img/green_left.png,j,response,f,false,2021-10-13 18:15:00,128.12.122.214,"Mozilla/5.0 (Macintosh; Intel Mac OS X 10_15_7) AppleWebKit/605.1.15 (KHTML, like Gecko) Version/15.0 Safari/605.1.15",Macintosh,Safari,15.0,OS X,10_15_7,fb12ad719e7ed92c2c22d2cb7e300d98
2,1,"""","""","""","""","""",html-keyboard-response,18,32644,0.0-4.0-0.7,null,"<div style=""font-size:60px;"">+</div>",null,fixation,"""","""",2021-10-13 18:15:00,128.12.122.214,"Mozilla/5.0 (Macintosh; Intel Mac OS X 10_15_7) AppleWebKit/605.1.15 (KHTML, like Gecko) Version/15.0 Safari/605.1.15",Macintosh,Safari,15.0,OS X,10_15_7,fb12ad719e7ed92c2c22d2cb7e300d98
2,1,"""","""","""","""","""",image-keyboard-response,19,33256,0.0-4.0-1.7,611,img/orange_left.png,f,response,j,false,2021-10-13 18:15:00,128.12.122.214,"Mozilla/5.0 (Macintosh; Intel Mac OS X 10_15_7) AppleWebKit/605.1.15 (KHTML, like Gecko) Version/15.0 Safari/605.1.15",Macintosh,Safari,15.0,OS X,10_15_7,fb12ad719e7ed92c2c22d2cb7e300d98
2,1,"""","""","""","""","""",html-keyboard-response,20,35008,0.0-4.0-0.8,null,"<div style=""font-size:60px;"">+</div>",null,fixation,"""","""",2021-10-13 18:15:00,128.12.122.214,"Mozilla/5.0 (Macintosh; Intel Mac OS X 10_15_7) AppleWebKit/605.1.15 (KHTML, like Gecko) Version/15.0 Safari/605.1.15",Macintosh,Safari,15.0,OS X,10_15_7,fb12ad719e7ed92c2c22d2cb7e300d98
2,1,"""","""","""","""","""",image-keyboard-response,21,35534,0.0-4.0-1.8,519,img/green_left.png,j,response,f,false,2021-10-13 18:15:00,128.12.122.214,"Mozilla/5.0 (Macintosh; Intel Mac OS X 10_15_7) AppleWebKit/605.1.15 (KHTML, like Gecko) Version/15.0 Safari/605.1.15",Macintosh,Safari,15.0,OS X,10_15_7,fb12ad719e7ed92c2c22d2cb7e300d98
2,1,"""","""","""","""","""",html-keyboard-response,22,36786,0.0-4.0-0.9,null,"<div style=""font-size:60px;"">+</div>",null,fixation,"""","""",2021-10-13 18:15:00,128.12.122.214,"Mozilla/5.0 (Macintosh; Intel Mac OS X 10_15_7) AppleWebKit/605.1.15 (KHTML, like Gecko) Version/15.0 Safari/605.1.15",Macintosh,Safari,15.0,OS X,10_15_7,fb12ad719e7ed92c2c22d2cb7e300d98
2,1,"""","""","""","""","""",image-keyboard-response,23,37275,0.0-4.0-1.9,488,img/green_right.png,j,response,j,true,2021-10-13 18:15:00,128.12.122.214,"Mozilla/5.0 (Macintosh; Intel Mac OS X 10_15_7) AppleWebKit/605.1.15 (KHTML, like Gecko) Version/15.0 Safari/605.1.15",Macintosh,Safari,15.0,OS X,10_15_7,fb12ad719e7ed92c2c22d2cb7e300d98
2,1,"""","""","""","""","""",html-keyboard-response,24,37527,0.0-4.0-0.10,null,"<div style=""font-size:60px;"">+</div>",null,fixation,"""","""",2021-10-13 18:15:00,128.12.122.214,"Mozilla/5.0 (Macintosh; Intel Mac OS X 10_15_7) AppleWebKit/605.1.15 (KHTML, like Gecko) Version/15.0 Safari/605.1.15",Macintosh,Safari,15.0,OS X,10_15_7,fb12ad719e7ed92c2c22d2cb7e300d98
2,1,"""","""","""","""","""",image-keyboard-response,25,38167,0.0-4.0-1.10,639,img/orange_left.png,f,response,j,false,2021-10-13 18:15:00,128.12.122.214,"Mozilla/5.0 (Macintosh; Intel Mac OS X 10_15_7) AppleWebKit/605.1.15 (KHTML, like Gecko) Version/15.0 Safari/605.1.15",Macintosh,Safari,15.0,OS X,10_15_7,fb12ad719e7ed92c2c22d2cb7e300d98
2,1,"""","""","""","""","""",html-keyboard-response,26,39669,0.0-4.0-0.11,null,"<div style=""font-size:60px;"">+</div>",null,fixation,"""","""",2021-10-13 18:15:00,128.12.122.214,"Mozilla/5.0 (Macintosh; Intel Mac OS X 10_15_7) AppleWebKit/605.1.15 (KHTML, like Gecko) Version/15.0 Safari/605.1.15",Macintosh,Safari,15.0,OS X,10_15_7,fb12ad719e7ed92c2c22d2cb7e300d98
10,1,true,false,[],[],[],preload,0,758,0.0-0.0,"""","""","""","""","""",,2021-10-21 16:26:57,24.4.120.49,"Mozilla/5.0 (Macintosh; Intel Mac OS X 10_15_6) AppleWebKit/605.1.15 (KHTML, like Gecko) Version/15.0 Safari/605.1.15",Macintosh,Safari,15.0,OS X,10_15_6,926ba5ee4bcd910686018d7b36652dc0,"""","""","""","""",""""
10,1,true,"""","""","""","""",fullscreen,1,3302,0.0-1.0,"""","""","""","""","""",,2021-10-21 16:26:57,24.4.120.49,"Mozilla/5.0 (Macintosh; Intel Mac OS X 10_15_6) AppleWebKit/605.1.15 (KHTML, like Gecko) Version/15.0 Safari/605.1.15",Macintosh,Safari,15.0,OS X,10_15_6,926ba5ee4bcd910686018d7b36652dc0,"""","""","""","""",""""
10,1,"""","""","""","""","""",html-button-response,2,5879,0.0-2.0,2571,<p>Welcome! Thank you so much for participating in this study. Press START to begin.</p><br>,0,"""","""",,2021-10-21 16:26:57,24.4.120.49,"Mozilla/5.0 (Macintosh; Intel Mac OS X 10_15_6) AppleWebKit/605.1.15 (KHTML, like Gecko) Version/15.0 Safari/605.1.15",Macintosh,Safari,15.0,OS X,10_15_6,926ba5ee4bcd910686018d7b36652dc0,"""","""","""","""",""""
10,1,"""","""","""","""","""",instructions,3,21259,0.0-3.0-0.0,15378,"""","""","""","""",,2021-10-21 16:26:57,24.4.120.49,"Mozilla/5.0 (Macintosh; Intel Mac OS X 10_15_6) AppleWebKit/605.1.15 (KHTML, like Gecko) Version/15.0 Safari/605.1.15",Macintosh,Safari,15.0,OS X,10_15_6,926ba5ee4bcd910686018d7b36652dc0,"""","[{""page_index"":0,""viewing_time"":1277},{""page_index"":1,""viewing_time"":818.0000000000018},{""page_index"":2,""viewing_time"":818.9999999999982},{""page_index"":3,""viewing_time"":691},{""page_index"":4,""viewing_time"":765},{""page_index"":5,""viewing_time"":9703},{""page_index"":6,""viewing_time"":1305}]","""","""",""""
10,1,"""","""","""","""","""",image-button-response,4,22360,0.0-3.0-1.0,1064,begin_practice.png,0,"""","""",,2021-10-21 16:26:57,24.4.120.49,"Mozilla/5.0 (Macintosh; Intel Mac OS X 10_15_6) AppleWebKit/605.1.15 (KHTML, like Gecko) Version/15.0 Safari/605.1.15",Macintosh,Safari,15.0,OS X,10_15_6,926ba5ee4bcd910686018d7b36652dc0,"""","""","""","""",""""
10,1,"""","""","""","""","""",image-keyboard-response,5,25118,0.0-3.0-2.0-0.0,null,img/fixation.png,null,fixation,"""",,2021-10-21 16:26:57,24.4.120.49,"Mozilla/5.0 (Macintosh; Intel Mac OS X 10_15_6) AppleWebKit/605.1.15 (KHTML, like Gecko) Version/15.0 Safari/605.1.15",Macintosh,Safari,15.0,OS X,10_15_6,926ba5ee4bcd910686018d7b36652dc0,"""","""","""","""",""""
10,1,"""","""","""","""","""",image-keyboard-response,6,32622,0.0-3.0-2.0-1.0,7499,img/flower_right.png,f,practice,f,,2021-10-21 16:26:57,24.4.120.49,"Mozilla/5.0 (Macintosh; Intel Mac OS X 10_15_6) AppleWebKit/605.1.15 (KHTML, like Gecko) Version/15.0 Safari/605.1.15",Macintosh,Safari,15.0,OS X,10_15_6,926ba5ee4bcd910686018d7b36652dc0,"""","""",1,"""",""""
10,1,"""","""","""","""","""",html-keyboard-response,7,33631,0.0-3.0-2.0-2.0,null,CORRECT!,null,"""","""",,2021-10-21 16:26:57,24.4.120.49,"Mozilla/5.0 (Macintosh; Intel Mac OS X 10_15_6) AppleWebKit/605.1.15 (KHTML, like Gecko) Version/15.0 Safari/605.1.15",Macintosh,Safari,15.0,OS X,10_15_6,926ba5ee4bcd910686018d7b36652dc0,"""","""","""",feedback,""""
10,1,"""","""","""","""","""",image-keyboard-response,8,35158,0.0-3.0-2.0-0.1,null,img/fixation.png,null,fixation,"""",,2021-10-21 16:26:57,24.4.120.49,"Mozilla/5.0 (Macintosh; Intel Mac OS X 10_15_6) AppleWebKit/605.1.15 (KHTML, like Gecko) Version/15.0 Safari/605.1.15",Macintosh,Safari,15.0,OS X,10_15_6,926ba5ee4bcd910686018d7b36652dc0,"""","""","""","""",""""
10,1,"""","""","""","""","""",image-keyboard-response,9,36240,0.0-3.0-2.0-1.1,1078,img/heart_left.png,f,practice,f,,2021-10-21 16:26:57,24.4.120.49,"Mozilla/5.0 (Macintosh; Intel Mac OS X 10_15_6) AppleWebKit/605.1.15 (KHTML, like Gecko) Version/15.0 Safari/605.1.15",Macintosh,Safari,15.0,OS X,10_15_6,926ba5ee4bcd910686018d7b36652dc0,"""","""",1,"""",""""
10,1,"""","""","""","""","""",html-keyboard-response,10,37243,0.0-3.0-2.0-2.1,null,CORRECT!,null,"""","""",,2021-10-21 16:26:57,24.4.120.49,"Mozilla/5.0 (Macintosh; Intel Mac OS X 10_15_6) AppleWebKit/605.1.15 (KHTML, like Gecko) Version/15.0 Safari/605.1.15",Macintosh,Safari,15.0,OS X,10_15_6,926ba5ee4bcd910686018d7b36652dc0,"""","""","""",feedback,""""
10,1,"""","""","""","""","""",image-keyboard-response,11,37996,0.0-3.0-2.0-0.2,null,img/fixation.png,null,fixation,"""",,2021-10-21 16:26:57,24.4.120.49,"Mozilla/5.0 (Macintosh; Intel Mac OS X 10_15_6) AppleWebKit/605.1.15 (KHTML, like Gecko) Version/15.0 Safari/605.1.15",Macintosh,Safari,15.0,OS X,10_15_6,926ba5ee4bcd910686018d7b36652dc0,"""","""","""","""",""""
10,1,"""","""","""","""","""",image-keyboard-response,12,38823,0.0-3.0-2.0-1.2,815.0000000000073,img/heart_right.png,j,practice,j,,2021-10-21 16:26:57,24.4.120.49,"Mozilla/5.0 (Macintosh; Intel Mac OS X 10_15_6) AppleWebKit/605.1.15 (KHTML, like Gecko) Version/15.0 Safari/605.1.15",Macintosh,Safari,15.0,OS X,10_15_6,926ba5ee4bcd910686018d7b36652dc0,"""","""",1,"""",""""
10,1,"""","""","""","""","""",html-keyboard-response,13,39826,0.0-3.0-2.0-2.2,null,CORRECT!,null,"""","""",,2021-10-21 16:26:57,24.4.120.49,"Mozilla/5.0 (Macintosh; Intel Mac OS X 10_15_6) AppleWebKit/605.1.15 (KHTML, like Gecko) Version/15.0 Safari/605.1.15",Macintosh,Safari,15.0,OS X,10_15_6,926ba5ee4bcd910686018d7b36652dc0,"""","""","""",feedback,""""
10,1,"""","""","""","""","""",image-keyboard-response,14,41580,0.0-3.0-2.0-0.3,null,img/fixation.png,null,fixation,"""",,2021-10-21 16:26:57,24.4.120.49,"Mozilla/5.0 (Macintosh; Intel Mac OS X 10_15_6) AppleWebKit/605.1.15 (KHTML, like Gecko) Version/15.0 Safari/605.1.15",Macintosh,Safari,15.0,OS X,10_15_6,926ba5ee4bcd910686018d7b36652dc0,"""","""","""","""",""""
10,1,"""","""","""","""","""",image-keyboard-response,15,42363,0.0-3.0-2.0-1.3,779,img/flower_left.png,f,practice,j,,2021-10-21 16:26:57,24.4.120.49,"Mozilla/5.0 (Macintosh; Intel Mac OS X 10_15_6) AppleWebKit/605.1.15 (KHTML, like Gecko) Version/15.0 Safari/605.1.15",Macintosh,Safari,15.0,OS X,10_15_6,926ba5ee4bcd910686018d7b36652dc0,"""","""",0,"""",""""
10,1,"""","""","""","""","""",html-keyboard-response,16,43366,0.0-3.0-2.0-2.3,null,INCORRECT!,null,"""","""",,2021-10-21 16:26:57,24.4.120.49,"Mozilla/5.0 (Macintosh; Intel Mac OS X 10_15_6) AppleWebKit/605.1.15 (KHTML, like Gecko) Version/15.0 Safari/605.1.15",Macintosh,Safari,15.0,OS X,10_15_6,926ba5ee4bcd910686018d7b36652dc0,"""","""","""",feedback,""""
10,1,"""","""","""","""","""",image-keyboard-response,17,44139,0.0-3.0-2.0-0.4,null,img/fixation.png,null,fixation,"""",,2021-10-21 16:26:57,24.4.120.49,"Mozilla/5.0 (Macintosh; Intel Mac OS X 10_15_6) AppleWebKit/605.1.15 (KHTML, like Gecko) Version/15.0 Safari/605.1.15",Macintosh,Safari,15.0,OS X,10_15_6,926ba5ee4bcd910686018d7b36652dc0,"""","""","""","""",""""
10,1,"""","""","""","""","""",image-keyboard-response,18,44902,0.0-3.0-2.0-1.4,725,img/flower_right.png,f,practice,f,,2021-10-21 16:26:57,24.4.120.49,"Mozilla/5.0 (Macintosh; Intel Mac OS X 10_15_6) AppleWebKit/605.1.15 (KHTML, like Gecko) Version/15.0 Safari/605.1.15",Macintosh,Safari,15.0,OS X,10_15_6,926ba5ee4bcd910686018d7b36652dc0,"""","""",1,"""",""""
10,1,"""","""","""","""","""",html-keyboard-response,19,45904,0.0-3.0-2.0-2.4,null,CORRECT!,null,"""","""",,2021-10-21 16:26:57,24.4.120.49,"Mozilla/5.0 (Macintosh; Intel Mac OS X 10_15_6) AppleWebKit/605.1.15 (KHTML, like Gecko) Version/15.0 Safari/605.1.15",Macintosh,Safari,15.0,OS X,10_15_6,926ba5ee4bcd910686018d7b36652dc0,"""","""","""",feedback,""""
10,1,"""","""","""","""","""",image-keyboard-response,20,47909,0.0-3.0-2.0-0.5,null,img/fixation.png,null,fixation,"""",,2021-10-21 16:26:57,24.4.120.49,"Mozilla/5.0 (Macintosh; Intel Mac OS X 10_15_6) AppleWebKit/605.1.15 (KHTML, like Gecko) Version/15.0 Safari/605.1.15",Macintosh,Safari,15.0,OS X,10_15_6,926ba5ee4bcd910686018d7b36652dc0,"""","""","""","""",""""
10,1,"""","""","""","""","""",image-keyboard-response,21,48398,0.0-3.0-2.0-1.5,446.9999999999927,img/heart_right.png,j,practice,j,,2021-10-21 16:26:57,24.4.120.49,"Mozilla/5.0 (Macintosh; Intel Mac OS X 10_15_6) AppleWebKit/605.1.15 (KHTML, like Gecko) Version/15.0 Safari/605.1.15",Macintosh,Safari,15.0,OS X,10_15_6,926ba5ee4bcd910686018d7b36652dc0,"""","""",1,"""",""""
10,1,"""","""","""","""","""",html-keyboard-response,22,49401,0.0-3.0-2.0-2.5,null,CORRECT!,null,"""","""",,2021-10-21 16:26:57,24.4.120.49,"Mozilla/5.0 (Macintosh; Intel Mac OS X 10_15_6) AppleWebKit/605.1.15 (KHTML, like Gecko) Version/15.0 Safari/605.1.15",Macintosh,Safari,15.0,OS X,10_15_6,926ba5ee4bcd910686018d7b36652dc0,"""","""","""",feedback,""""
10,1,"""","""","""","""","""",image-keyboard-response,23,50915,0.0-3.0-2.0-0.6,null,img/fixation.png,null,fixation,"""",,2021-10-21 16:26:57,24.4.120.49,"Mozilla/5.0 (Macintosh; Intel Mac OS X 10_15_6) AppleWebKit/605.1.15 (KHTML, like Gecko) Version/15.0 Safari/605.1.15",Macintosh,Safari,15.0,OS X,10_15_6,926ba5ee4bcd910686018d7b36652dc0,"""","""","""","""",""""
10,1,"""","""","""","""","""",image-keyboard-response,24,51425,0.0-3.0-2.0-1.6,506,img/flower_right.png,f,practice,f,,2021-10-21 16:26:57,24.4.120.49,"Mozilla/5.0 (Macintosh; Intel Mac OS X 10_15_6) AppleWebKit/605.1.15 (KHTML, like Gecko) Version/15.0 Safari/605.1.15",Macintosh,Safari,15.0,OS X,10_15_6,926ba5ee4bcd910686018d7b36652dc0,"""","""",1,"""",""""
10,1,"""","""","""","""","""",html-keyboard-response,25,52427,0.0-3.0-2.0-2.6,null,CORRECT!,null,"""","""",,2021-10-21 16:26:57,24.4.120.49,"Mozilla/5.0 (Macintosh; Intel Mac OS X 10_15_6) AppleWebKit/605.1.15 (KHTML, like Gecko) Version/15.0 Safari/605.1.15",Macintosh,Safari,15.0,OS X,10_15_6,926ba5ee4bcd910686018d7b36652dc0,"""","""","""",feedback,""""
10,1,"""","""","""","""","""",image-keyboard-response,26,54431,0.0-3.0-2.0-0.7,null,img/fixation.png,null,fixation,"""",,2021-10-21 16:26:57,24.4.120.49,"Mozilla/5.0 (Macintosh; Intel Mac OS X 10_15_6) AppleWebKit/605.1.15 (KHTML, like Gecko) Version/15.0 Safari/605.1.15",Macintosh,Safari,15.0,OS X,10_15_6,926ba5ee4bcd910686018d7b36652dc0,"""","""","""","""",""""
10,1,"""","""","""","""","""",image-keyboard-response,27,54985,0.0-3.0-2.0-1.7,549.9999999999927,img/heart_right.png,j,practice,j,,2021-10-21 16:26:57,24.4.120.49,"Mozilla/5.0 (Macintosh; Intel Mac OS X 10_15_6) AppleWebKit/605.1.15 (KHTML, like Gecko) Version/15.0 Safari/605.1.15",Macintosh,Safari,15.0,OS X,10_15_6,926ba5ee4bcd910686018d7b36652dc0,"""","""",1,"""",""""
10,1,"""","""","""","""","""",html-keyboard-response,28,55992,0.0-3.0-2.0-2.7,null,CORRECT!,null,"""","""",,2021-10-21 16:26:57,24.4.120.49,"Mozilla/5.0 (Macintosh; Intel Mac OS X 10_15_6) AppleWebKit/605.1.15 (KHTML, like Gecko) Version/15.0 Safari/605.1.15",Macintosh,Safari,15.0,OS X,10_15_6,926ba5ee4bcd910686018d7b36652dc0,"""","""","""",feedback,""""
10,1,"""","""","""","""","""",image-keyboard-response,29,57497,0.0-3.0-2.0-0.8,null,img/fixation.png,null,fixation,"""",,2021-10-21 16:26:57,24.4.120.49,"Mozilla/5.0 (Macintosh; Intel Mac OS X 10_15_6) AppleWebKit/605.1.15 (KHTML, like Gecko) Version/15.0 Safari/605.1.15",Macintosh,Safari,15.0,OS X,10_15_6,926ba5ee4bcd910686018d7b36652dc0,"""","""","""","""",""""
10,1,"""","""","""","""","""",image-keyboard-response,30,58105,0.0-3.0-2.0-1.8,570,img/flower_left.png,j,practice,j,,2021-10-21 16:26:57,24.4.120.49,"Mozilla/5.0 (Macintosh; Intel Mac OS X 10_15_6) AppleWebKit/605.1.15 (KHTML, like Gecko) Version/15.0 Safari/605.1.15",Macintosh,Safari,15.0,OS X,10_15_6,926ba5ee4bcd910686018d7b36652dc0,"""","""",1,"""",""""
10,1,"""","""","""","""","""",html-keyboard-response,31,59108,0.0-3.0-2.0-2.8,null,CORRECT!,null,"""","""",,2021-10-21 16:26:57,24.4.120.49,"Mozilla/5.0 (Macintosh; Intel Mac OS X 10_15_6) AppleWebKit/605.1.15 (KHTML, like Gecko) Version/15.0 Safari/605.1.15",Macintosh,Safari,15.0,OS X,10_15_6,926ba5ee4bcd910686018d7b36652dc0,"""","""","""",feedback,""""
10,1,"""","""","""","""","""",image-keyboard-response,32,60613,0.0-3.0-2.0-0.9,null,img/fixation.png,null,fixation,"""",,2021-10-21 16:26:57,24.4.120.49,"Mozilla/5.0 (Macintosh; Intel Mac OS X 10_15_6) AppleWebKit/605.1.15 (KHTML, like Gecko) Version/15.0 Safari/605.1.15",Macintosh,Safari,15.0,OS X,10_15_6,926ba5ee4bcd910686018d7b36652dc0,"""","""","""","""",""""
10,1,"""","""","""","""","""",image-keyboard-response,33,61369,0.0-3.0-2.0-1.9,714,img/heart_left.png,f,practice,f,,2021-10-21 16:26:57,24.4.120.49,"Mozilla/5.0 (Macintosh; Intel Mac OS X 10_15_6) AppleWebKit/605.1.15 (KHTML, like Gecko) Version/15.0 Safari/605.1.15",Macintosh,Safari,15.0,OS X,10_15_6,926ba5ee4bcd910686018d7b36652dc0,"""","""",1,"""",""""
10,1,"""","""","""","""","""",html-keyboard-response,34,62372,0.0-3.0-2.0-2.9,null,CORRECT!,null,"""","""",,2021-10-21 16:26:57,24.4.120.49,"Mozilla/5.0 (Macintosh; Intel Mac OS X 10_15_6) AppleWebKit/605.1.15 (KHTML, like Gecko) Version/15.0 Safari/605.1.15",Macintosh,Safari,15.0,OS X,10_15_6,926ba5ee4bcd910686018d7b36652dc0,"""","""","""",feedback,""""
10,1,"""","""","""","""","""",image-button-response,35,63933,0.0-3.0-3.0-0.0,1513,repeat_instructions.png,0,"""","""",,2021-10-21 16:26:57,24.4.120.49,"Mozilla/5.0 (Macintosh; Intel Mac OS X 10_15_6) AppleWebKit/605.1.15 (KHTML, like Gecko) Version/15.0 Safari/605.1.15",Macintosh,Safari,15.0,OS X,10_15_6,926ba5ee4bcd910686018d7b36652dc0,"""","""","""","""",""""
10,1,"""","""","""","""","""",instructions,36,68744,0.0-3.1-0.1,4809.000000000015,"""","""","""","""",,2021-10-21 16:26:57,24.4.120.49,"Mozilla/5.0 (Macintosh; Intel Mac OS X 10_15_6) AppleWebKit/605.1.15 (KHTML, like Gecko) Version/15.0 Safari/605.1.15",Macintosh,Safari,15.0,OS X,10_15_6,926ba5ee4bcd910686018d7b36652dc0,"""","[{""page_index"":0,""viewing_time"":1056.0000000000146},{""page_index"":1,""viewing_time"":422.99999999998545},{""page_index"":2,""viewing_time"":369},{""page_index"":3,""viewing_time"":635},{""page_index"":4,""viewing_time"":1475},{""page_index"":5,""viewing_time"":428},{""page_index"":6,""viewing_time"":423.00000000001455}]","""","""",""""
10,1,"""","""","""","""","""",image-button-response,37,69571,0.0-3.1-1.1,823,begin_practice.png,0,"""","""",,2021-10-21 16:26:57,24.4.120.49,"Mozilla/5.0 (Macintosh; Intel Mac OS X 10_15_6) AppleWebKit/605.1.15 (KHTML, like Gecko) Version/15.0 Safari/605.1.15",Macintosh,Safari,15.0,OS X,10_15_6,926ba5ee4bcd910686018d7b36652dc0,"""","""","""","""",""""
10,1,"""","""","""","""","""",image-keyboard-response,38,72077,0.0-3.1-2.1-0.10,null,img/fixation.png,null,fixation,"""",,2021-10-21 16:26:57,24.4.120.49,"Mozilla/5.0 (Macintosh; Intel Mac OS X 10_15_6) AppleWebKit/605.1.15 (KHTML, like Gecko) Version/15.0 Safari/605.1.15",Macintosh,Safari,15.0,OS X,10_15_6,926ba5ee4bcd910686018d7b36652dc0,"""","""","""","""",""""
10,1,"""","""","""","""","""",image-keyboard-response,39,72826,0.0-3.1-2.1-1.10,745,img/flower_left.png,j,practice,j,,2021-10-21 16:26:57,24.4.120.49,"Mozilla/5.0 (Macintosh; Intel Mac OS X 10_15_6) AppleWebKit/605.1.15 (KHTML, like Gecko) Version/15.0 Safari/605.1.15",Macintosh,Safari,15.0,OS X,10_15_6,926ba5ee4bcd910686018d7b36652dc0,"""","""",1,"""",""""
10,1,"""","""","""","""","""",html-keyboard-response,40,73828,0.0-3.1-2.1-2.10,null,CORRECT!,null,"""","""",,2021-10-21 16:26:57,24.4.120.49,"Mozilla/5.0 (Macintosh; Intel Mac OS X 10_15_6) AppleWebKit/605.1.15 (KHTML, like Gecko) Version/15.0 Safari/605.1.15",Macintosh,Safari,15.0,OS X,10_15_6,926ba5ee4bcd910686018d7b36652dc0,"""","""","""",feedback,""""
10,1,"""","""","""","""","""",image-keyboard-response,41,75083,0.0-3.1-2.1-0.11,null,img/fixation.png,null,fixation,"""",,2021-10-21 16:26:57,24.4.120.49,"Mozilla/5.0 (Macintosh; Intel Mac OS X 10_15_6) AppleWebKit/605.1.15 (KHTML, like Gecko) Version/15.0 Safari/605.1.15",Macintosh,Safari,15.0,OS X,10_15_6,926ba5ee4bcd910686018d7b36652dc0,"""","""","""","""",""""
10,1,"""","""","""","""","""",image-keyboard-response,42,75862,0.0-3.1-2.1-1.11,769.0000000000146,img/heart_right.png,j,practice,j,,2021-10-21 16:26:57,24.4.120.49,"Mozilla/5.0 (Macintosh; Intel Mac OS X 10_15_6) AppleWebKit/605.1.15 (KHTML, like Gecko) Version/15.0 Safari/605.1.15",Macintosh,Safari,15.0,OS X,10_15_6,926ba5ee4bcd910686018d7b36652dc0,"""","""",1,"""",""""
10,1,"""","""","""","""","""",html-keyboard-response,43,76866,0.0-3.1-2.1-2.11,null,CORRECT!,null,"""","""",,2021-10-21 16:26:57,24.4.120.49,"Mozilla/5.0 (Macintosh; Intel Mac OS X 10_15_6) AppleWebKit/605.1.15 (KHTML, like Gecko) Version/15.0 Safari/605.1.15",Macintosh,Safari,15.0,OS X,10_15_6,926ba5ee4bcd910686018d7b36652dc0,"""","""","""",feedback,""""
10,1,"""","""","""","""","""",image-keyboard-response,44,77369,0.0-3.1-2.1-0.12,null,img/fixation.png,null,fixation,"""",,2021-10-21 16:26:57,24.4.120.49,"Mozilla/5.0 (Macintosh; Intel Mac OS X 10_15_6) AppleWebKit/605.1.15 (KHTML, like Gecko) Version/15.0 Safari/605.1.15",Macintosh,Safari,15.0,OS X,10_15_6,926ba5ee4bcd910686018d7b36652dc0,"""","""","""","""",""""
10,1,"""","""","""","""","""",image-keyboard-response,45,77827,0.0-3.1-2.1-1.12,454,img/heart_left.png,f,practice,f,,2021-10-21 16:26:57,24.4.120.49,"Mozilla/5.0 (Macintosh; Intel Mac OS X 10_15_6) AppleWebKit/605.1.15 (KHTML, like Gecko) Version/15.0 Safari/605.1.15",Macintosh,Safari,15.0,OS X,10_15_6,926ba5ee4bcd910686018d7b36652dc0,"""","""",1,"""",""""
10,1,"""","""","""","""","""",html-keyboard-response,46,78830,0.0-3.1-2.1-2.12,null,CORRECT!,null,"""","""",,2021-10-21 16:26:57,24.4.120.49,"Mozilla/5.0 (Macintosh; Intel Mac OS X 10_15_6) AppleWebKit/605.1.15 (KHTML, like Gecko) Version/15.0 Safari/605.1.15",Macintosh,Safari,15.0,OS X,10_15_6,926ba5ee4bcd910686018d7b36652dc0,"""","""","""",feedback,""""
10,1,"""","""","""","""","""",image-keyboard-response,47,80834,0.0-3.1-2.1-0.13,null,img/fixation.png,null,fixation,"""",,2021-10-21 16:26:57,24.4.120.49,"Mozilla/5.0 (Macintosh; Intel Mac OS X 10_15_6) AppleWebKit/605.1.15 (KHTML, like Gecko) Version/15.0 Safari/605.1.15",Macintosh,Safari,15.0,OS X,10_15_6,926ba5ee4bcd910686018d7b36652dc0,"""","""","""","""",""""
10,1,"""","""","""","""","""",image-keyboard-response,48,81525,0.0-3.1-2.1-1.13,673.9999999999854,img/heart_left.png,f,practice,f,,2021-10-21 16:26:57,24.4.120.49,"Mozilla/5.0 (Macintosh; Intel Mac OS X 10_15_6) AppleWebKit/605.1.15 (KHTML, like Gecko) Version/15.0 Safari/605.1.15",Macintosh,Safari,15.0,OS X,10_15_6,926ba5ee4bcd910686018d7b36652dc0,"""","""",1,"""",""""
10,1,"""","""","""","""","""",html-keyboard-response,49,82529,0.0-3.1-2.1-2.13,null,CORRECT!,null,"""","""",,2021-10-21 16:26:57,24.4.120.49,"Mozilla/5.0 (Macintosh; Intel Mac OS X 10_15_6) AppleWebKit/605.1.15 (KHTML, like Gecko) Version/15.0 Safari/605.1.15",Macintosh,Safari,15.0,OS X,10_15_6,926ba5ee4bcd910686018d7b36652dc0,"""","""","""",feedback,""""
10,1,"""","""","""","""","""",image-keyboard-response,50,84039,0.0-3.1-2.1-0.14,null,img/fixation.png,null,fixation,"""",,2021-10-21 16:26:57,24.4.120.49,"Mozilla/5.0 (Macintosh; Intel Mac OS X 10_15_6) AppleWebKit/605.1.15 (KHTML, like Gecko) Version/15.0 Safari/605.1.15",Macintosh,Safari,15.0,OS X,10_15_6,926ba5ee4bcd910686018d7b36652dc0,"""","""","""","""",""""
10,1,"""","""","""","""","""",image-keyboard-response,51,84639,0.0-3.1-2.1-1.14,596,img/flower_left.png,j,practice,j,,2021-10-21 16:26:57,24.4.120.49,"Mozilla/5.0 (Macintosh; Intel Mac OS X 10_15_6) AppleWebKit/605.1.15 (KHTML, like Gecko) Version/15.0 Safari/605.1.15",Macintosh,Safari,15.0,OS X,10_15_6,926ba5ee4bcd910686018d7b36652dc0,"""","""",1,"""",""""
10,1,"""","""","""","""","""",html-keyboard-response,52,85642,0.0-3.1-2.1-2.14,null,CORRECT!,null,"""","""",,2021-10-21 16:26:57,24.4.120.49,"Mozilla/5.0 (Macintosh; Intel Mac OS X 10_15_6) AppleWebKit/605.1.15 (KHTML, like Gecko) Version/15.0 Safari/605.1.15",Macintosh,Safari,15.0,OS X,10_15_6,926ba5ee4bcd910686018d7b36652dc0,"""","""","""",feedback,""""
10,1,"""","""","""","""","""",image-keyboard-response,53,86147,0.0-3.1-2.1-0.15,null,img/fixation.png,null,fixation,"""",,2021-10-21 16:26:57,24.4.120.49,"Mozilla/5.0 (Macintosh; Intel Mac OS X 10_15_6) AppleWebKit/605.1.15 (KHTML, like Gecko) Version/15.0 Safari/605.1.15",Macintosh,Safari,15.0,OS X,10_15_6,926ba5ee4bcd910686018d7b36652dc0,"""","""","""","""",""""
10,1,"""","""","""","""","""",image-keyboard-response,54,86767,0.0-3.1-2.1-1.15,617,img/heart_left.png,f,practice,f,,2021-10-21 16:26:57,24.4.120.49,"Mozilla/5.0 (Macintosh; Intel Mac OS X 10_15_6) AppleWebKit/605.1.15 (KHTML, like Gecko) Version/15.0 Safari/605.1.15",Macintosh,Safari,15.0,OS X,10_15_6,926ba5ee4bcd910686018d7b36652dc0,"""","""",1,"""",""""
10,1,"""","""","""","""","""",html-keyboard-response,55,87776,0.0-3.1-2.1-2.15,null,CORRECT!,null,"""","""",,2021-10-21 16:26:57,24.4.120.49,"Mozilla/5.0 (Macintosh; Intel Mac OS X 10_15_6) AppleWebKit/605.1.15 (KHTML, like Gecko) Version/15.0 Safari/605.1.15",Macintosh,Safari,15.0,OS X,10_15_6,926ba5ee4bcd910686018d7b36652dc0,"""","""","""",feedback,""""
10,1,"""","""","""","""","""",image-keyboard-response,56,88781,0.0-3.1-2.1-0.16,null,img/fixation.png,null,fixation,"""",,2021-10-21 16:26:57,24.4.120.49,"Mozilla/5.0 (Macintosh; Intel Mac OS X 10_15_6) AppleWebKit/605.1.15 (KHTML, like Gecko) Version/15.0 Safari/605.1.15",Macintosh,Safari,15.0,OS X,10_15_6,926ba5ee4bcd910686018d7b36652dc0,"""","""","""","""",""""
10,1,"""","""","""","""","""",image-keyboard-response,57,89327,0.0-3.1-2.1-1.16,543,img/heart_right.png,j,practice,j,,2021-10-21 16:26:57,24.4.120.49,"Mozilla/5.0 (Macintosh; Intel Mac OS X 10_15_6) AppleWebKit/605.1.15 (KHTML, like Gecko) Version/15.0 Safari/605.1.15",Macintosh,Safari,15.0,OS X,10_15_6,926ba5ee4bcd910686018d7b36652dc0,"""","""",1,"""",""""
10,1,"""","""","""","""","""",html-keyboard-response,58,90329,0.0-3.1-2.1-2.16,null,CORRECT!,null,"""","""",,2021-10-21 16:26:57,24.4.120.49,"Mozilla/5.0 (Macintosh; Intel Mac OS X 10_15_6) AppleWebKit/605.1.15 (KHTML, like Gecko) Version/15.0 Safari/605.1.15",Macintosh,Safari,15.0,OS X,10_15_6,926ba5ee4bcd910686018d7b36652dc0,"""","""","""",feedback,""""
10,1,"""","""","""","""","""",image-keyboard-response,59,91584,0.0-3.1-2.1-0.17,null,img/fixation.png,null,fixation,"""",,2021-10-21 16:26:57,24.4.120.49,"Mozilla/5.0 (Macintosh; Intel Mac OS X 10_15_6) AppleWebKit/605.1.15 (KHTML, like Gecko) Version/15.0 Safari/605.1.15",Macintosh,Safari,15.0,OS X,10_15_6,926ba5ee4bcd910686018d7b36652dc0,"""","""","""","""",""""
10,1,"""","""","""","""","""",image-keyboard-response,60,92056,0.0-3.1-2.1-1.17,468,img/heart_left.png,f,practice,f,,2021-10-21 16:26:57,24.4.120.49,"Mozilla/5.0 (Macintosh; Intel Mac OS X 10_15_6) AppleWebKit/605.1.15 (KHTML, like Gecko) Version/15.0 Safari/605.1.15",Macintosh,Safari,15.0,OS X,10_15_6,926ba5ee4bcd910686018d7b36652dc0,"""","""",1,"""",""""
10,1,"""","""","""","""","""",html-keyboard-response,61,93059,0.0-3.1-2.1-2.17,null,CORRECT!,null,"""","""",,2021-10-21 16:26:57,24.4.120.49,"Mozilla/5.0 (Macintosh; Intel Mac OS X 10_15_6) AppleWebKit/605.1.15 (KHTML, like Gecko) Version/15.0 Safari/605.1.15",Macintosh,Safari,15.0,OS X,10_15_6,926ba5ee4bcd910686018d7b36652dc0,"""","""","""",feedback,""""
10,1,"""","""","""","""","""",image-keyboard-response,62,93335,0.0-3.1-2.1-0.18,null,img/fixation.png,null,fixation,"""",,2021-10-21 16:26:57,24.4.120.49,"Mozilla/5.0 (Macintosh; Intel Mac OS X 10_15_6) AppleWebKit/605.1.15 (KHTML, like Gecko) Version/15.0 Safari/605.1.15",Macintosh,Safari,15.0,OS X,10_15_6,926ba5ee4bcd910686018d7b36652dc0,"""","""","""","""",""""
10,1,"""","""","""","""","""",image-keyboard-response,63,93778,0.0-3.1-2.1-1.18,440,img/heart_left.png,f,practice,f,,2021-10-21 16:26:57,24.4.120.49,"Mozilla/5.0 (Macintosh; Intel Mac OS X 10_15_6) AppleWebKit/605.1.15 (KHTML, like Gecko) Version/15.0 Safari/605.1.15",Macintosh,Safari,15.0,OS X,10_15_6,926ba5ee4bcd910686018d7b36652dc0,"""","""",1,"""",""""
10,1,"""","""","""","""","""",html-keyboard-response,64,94782,0.0-3.1-2.1-2.18,null,CORRECT!,null,"""","""",,2021-10-21 16:26:57,24.4.120.49,"Mozilla/5.0 (Macintosh; Intel Mac OS X 10_15_6) AppleWebKit/605.1.15 (KHTML, like Gecko) Version/15.0 Safari/605.1.15",Macintosh,Safari,15.0,OS X,10_15_6,926ba5ee4bcd910686018d7b36652dc0,"""","""","""",feedback,""""
10,1,"""","""","""","""","""",image-keyboard-response,65,95787,0.0-3.1-2.1-0.19,null,img/fixation.png,null,fixation,"""",,2021-10-21 16:26:57,24.4.120.49,"Mozilla/5.0 (Macintosh; Intel Mac OS X 10_15_6) AppleWebKit/605.1.15 (KHTML, like Gecko) Version/15.0 Safari/605.1.15",Macintosh,Safari,15.0,OS X,10_15_6,926ba5ee4bcd910686018d7b36652dc0,"""","""","""","""",""""
10,1,"""","""","""","""","""",image-keyboard-response,66,96387,0.0-3.1-2.1-1.19,596.0000000000146,img/heart_left.png,f,practice,f,,2021-10-21 16:26:57,24.4.120.49,"Mozilla/5.0 (Macintosh; Intel Mac OS X 10_15_6) AppleWebKit/605.1.15 (KHTML, like Gecko) Version/15.0 Safari/605.1.15",Macintosh,Safari,15.0,OS X,10_15_6,926ba5ee4bcd910686018d7b36652dc0,"""","""",1,"""",""""
10,1,"""","""","""","""","""",html-keyboard-response,67,97390,0.0-3.1-2.1-2.19,null,CORRECT!,null,"""","""",,2021-10-21 16:26:57,24.4.120.49,"Mozilla/5.0 (Macintosh; Intel Mac OS X 10_15_6) AppleWebKit/605.1.15 (KHTML, like Gecko) Version/15.0 Safari/605.1.15",Macintosh,Safari,15.0,OS X,10_15_6,926ba5ee4bcd910686018d7b36652dc0,"""","""","""",feedback,""""
10,1,"""","""","""","""","""",image-button-response,68,99045,0.0-4.0,1649,img/begin_experiment.png,0,"""","""",,2021-10-21 16:26:57,24.4.120.49,"Mozilla/5.0 (Macintosh; Intel Mac OS X 10_15_6) AppleWebKit/605.1.15 (KHTML, like Gecko) Version/15.0 Safari/605.1.15",Macintosh,Safari,15.0,OS X,10_15_6,926ba5ee4bcd910686018d7b36652dc0,"""","""","""","""",""""
10,1,"""","""","""","""","""",image-keyboard-response,69,101554,0.0-5.0-0.0,null,img/fixation.png,null,fixation,"""",,2021-10-21 16:26:57,24.4.120.49,"Mozilla/5.0 (Macintosh; Intel Mac OS X 10_15_6) AppleWebKit/605.1.15 (KHTML, like Gecko) Version/15.0 Safari/605.1.15",Macintosh,Safari,15.0,OS X,10_15_6,926ba5ee4bcd910686018d7b36652dc0,"""","""","""","""",1
10,1,"""","""","""","""","""",image-keyboard-response,70,102180,0.0-5.0-1.0,622,img/flower_right.png,f,response,f,,2021-10-21 16:26:57,24.4.120.49,"Mozilla/5.0 (Macintosh; Intel Mac OS X 10_15_6) AppleWebKit/605.1.15 (KHTML, like Gecko) Version/15.0 Safari/605.1.15",Macintosh,Safari,15.0,OS X,10_15_6,926ba5ee4bcd910686018d7b36652dc0,"""","""",1,"""",1
10,1,"""","""","""","""","""",image-keyboard-response,71,102934,0.0-5.0-0.1,null,img/fixation.png,null,fixation,"""",,2021-10-21 16:26:57,24.4.120.49,"Mozilla/5.0 (Macintosh; Intel Mac OS X 10_15_6) AppleWebKit/605.1.15 (KHTML, like Gecko) Version/15.0 Safari/605.1.15",Macintosh,Safari,15.0,OS X,10_15_6,926ba5ee4bcd910686018d7b36652dc0,"""","""","""","""",1
10,1,"""","""","""","""","""",image-keyboard-response,72,103456,0.0-5.0-1.1,519,img/heart_left.png,f,response,f,,2021-10-21 16:26:57,24.4.120.49,"Mozilla/5.0 (Macintosh; Intel Mac OS X 10_15_6) AppleWebKit/605.1.15 (KHTML, like Gecko) Version/15.0 Safari/605.1.15",Macintosh,Safari,15.0,OS X,10_15_6,926ba5ee4bcd910686018d7b36652dc0,"""","""",1,"""",1
10,1,"""","""","""","""","""",image-keyboard-response,73,104963,0.0-5.0-0.2,null,img/fixation.png,null,fixation,"""",,2021-10-21 16:26:57,24.4.120.49,"Mozilla/5.0 (Macintosh; Intel Mac OS X 10_15_6) AppleWebKit/605.1.15 (KHTML, like Gecko) Version/15.0 Safari/605.1.15",Macintosh,Safari,15.0,OS X,10_15_6,926ba5ee4bcd910686018d7b36652dc0,"""","""","""","""",1
10,1,"""","""","""","""","""",image-keyboard-response,74,105361,0.0-5.0-1.2,382.99999999998545,img/heart_left.png,f,response,f,,2021-10-21 16:26:57,24.4.120.49,"Mozilla/5.0 (Macintosh; Intel Mac OS X 10_15_6) AppleWebKit/605.1.15 (KHTML, like Gecko) Version/15.0 Safari/605.1.15",Macintosh,Safari,15.0,OS X,10_15_6,926ba5ee4bcd910686018d7b36652dc0,"""","""",1,"""",1
10,1,"""","""","""","""","""",html-keyboard-response,75,109278,0.0-6.0,3911,"<p>You responded correctly on 100% of the trials.</p>
      <p>Your average response time was 508ms.</p>
      <p>Press any key to complete the experiment. Thank you!</p>",f,"""","""",,2021-10-21 16:26:57,24.4.120.49,"Mozilla/5.0 (Macintosh; Intel Mac OS X 10_15_6) AppleWebKit/605.1.15 (KHTML, like Gecko) Version/15.0 Safari/605.1.15",Macintosh,Safari,15.0,OS X,10_15_6,926ba5ee4bcd910686018d7b36652dc0,"""","""","""","""",""""
10,1,"""","""","""","""","""",html-button-response,76,110618,0.0-7.0,1338.0000000000146,<p>Thanks! You done gurl. Please press FINISH to save your data and get paid.</p>,0,"""","""",,2021-10-21 16:26:57,24.4.120.49,"Mozilla/5.0 (Macintosh; Intel Mac OS X 10_15_6) AppleWebKit/605.1.15 (KHTML, like Gecko) Version/15.0 Safari/605.1.15",Macintosh,Safari,15.0,OS X,10_15_6,926ba5ee4bcd910686018d7b36652dc0,"""","""","""","""",""""
11,1,true,false,[],[],[],preload,0,1806,0.0-0.0,"""","""","""","""","""",,2021-10-21 17:53:46,99.144.119.216,"Mozilla/5.0 (Macintosh; Intel Mac OS X 10_15_7) AppleWebKit/537.36 (KHTML, like Gecko) Chrome/94.0.4606.81 Safari/537.36",Macintosh,Chrome,94.0.4606.81,OS X,10_15_7,926ba5ee4bcd910686018d7b36652dc0,"""","""","""","""",""""
11,1,true,"""","""","""","""",fullscreen,1,41481,0.0-1.0,"""","""","""","""","""",,2021-10-21 17:53:46,99.144.119.216,"Mozilla/5.0 (Macintosh; Intel Mac OS X 10_15_7) AppleWebKit/537.36 (KHTML, like Gecko) Chrome/94.0.4606.81 Safari/537.36",Macintosh,Chrome,94.0.4606.81,OS X,10_15_7,926ba5ee4bcd910686018d7b36652dc0,"""","""","""","""",""""
11,1,"""","""","""","""","""",html-button-response,2,43718,0.0-2.0,2230.7000000178814,<p>Welcome! Thank you so much for participating in this study. Press START to begin.</p><br>,0,"""","""",,2021-10-21 17:53:46,99.144.119.216,"Mozilla/5.0 (Macintosh; Intel Mac OS X 10_15_7) AppleWebKit/537.36 (KHTML, like Gecko) Chrome/94.0.4606.81 Safari/537.36",Macintosh,Chrome,94.0.4606.81,OS X,10_15_7,926ba5ee4bcd910686018d7b36652dc0,"""","""","""","""",""""
11,1,"""","""","""","""","""",instructions,3,74720,0.0-3.0-0.0,30999.79999998212,"""","""","""","""",,2021-10-21 17:53:46,99.144.119.216,"Mozilla/5.0 (Macintosh; Intel Mac OS X 10_15_7) AppleWebKit/537.36 (KHTML, like Gecko) Chrome/94.0.4606.81 Safari/537.36",Macintosh,Chrome,94.0.4606.81,OS X,10_15_7,926ba5ee4bcd910686018d7b36652dc0,"""","[{""page_index"":0,""viewing_time"":9172.59999999404},{""page_index"":1,""viewing_time"":8962.5},{""page_index"":2,""viewing_time"":2550.7999999821186},{""page_index"":3,""viewing_time"":1444.4000000059605},{""page_index"":4,""viewing_time"":2675.4000000059605},{""page_index"":5,""viewing_time"":4626.0999999940395},{""page_index"":6,""viewing_time"":1566.4000000059605}]","""","""",""""
11,1,"""","""","""","""","""",image-button-response,4,77721,0.0-3.0-1.0,2997.2000000178814,begin_practice.png,0,"""","""",,2021-10-21 17:53:46,99.144.119.216,"Mozilla/5.0 (Macintosh; Intel Mac OS X 10_15_7) AppleWebKit/537.36 (KHTML, like Gecko) Chrome/94.0.4606.81 Safari/537.36",Macintosh,Chrome,94.0.4606.81,OS X,10_15_7,926ba5ee4bcd910686018d7b36652dc0,"""","""","""","""",""""
11,1,"""","""","""","""","""",image-keyboard-response,5,81489,0.0-3.0-2.0-0.0,null,img/fixation.png,null,fixation,"""",,2021-10-21 17:53:46,99.144.119.216,"Mozilla/5.0 (Macintosh; Intel Mac OS X 10_15_7) AppleWebKit/537.36 (KHTML, like Gecko) Chrome/94.0.4606.81 Safari/537.36",Macintosh,Chrome,94.0.4606.81,OS X,10_15_7,926ba5ee4bcd910686018d7b36652dc0,"""","""","""","""",""""
11,1,"""","""","""","""","""",image-keyboard-response,6,82686,0.0-3.0-2.0-1.0,1194.2000000178814,img/flower_right.png,f,practice,f,,2021-10-21 17:53:46,99.144.119.216,"Mozilla/5.0 (Macintosh; Intel Mac OS X 10_15_7) AppleWebKit/537.36 (KHTML, like Gecko) Chrome/94.0.4606.81 Safari/537.36",Macintosh,Chrome,94.0.4606.81,OS X,10_15_7,926ba5ee4bcd910686018d7b36652dc0,"""","""",1,"""",""""
11,1,"""","""","""","""","""",html-keyboard-response,7,83692,0.0-3.0-2.0-2.0,null,CORRECT!,null,"""","""",,2021-10-21 17:53:46,99.144.119.216,"Mozilla/5.0 (Macintosh; Intel Mac OS X 10_15_7) AppleWebKit/537.36 (KHTML, like Gecko) Chrome/94.0.4606.81 Safari/537.36",Macintosh,Chrome,94.0.4606.81,OS X,10_15_7,926ba5ee4bcd910686018d7b36652dc0,"""","""","""",feedback,""""
11,1,"""","""","""","""","""",image-keyboard-response,8,84703,0.0-3.0-2.0-0.1,null,img/fixation.png,null,fixation,"""",,2021-10-21 17:53:46,99.144.119.216,"Mozilla/5.0 (Macintosh; Intel Mac OS X 10_15_7) AppleWebKit/537.36 (KHTML, like Gecko) Chrome/94.0.4606.81 Safari/537.36",Macintosh,Chrome,94.0.4606.81,OS X,10_15_7,926ba5ee4bcd910686018d7b36652dc0,"""","""","""","""",""""
11,1,"""","""","""","""","""",image-keyboard-response,9,85546,0.0-3.0-2.0-1.1,840.3000000119209,img/heart_left.png,j,practice,f,,2021-10-21 17:53:46,99.144.119.216,"Mozilla/5.0 (Macintosh; Intel Mac OS X 10_15_7) AppleWebKit/537.36 (KHTML, like Gecko) Chrome/94.0.4606.81 Safari/537.36",Macintosh,Chrome,94.0.4606.81,OS X,10_15_7,926ba5ee4bcd910686018d7b36652dc0,"""","""",0,"""",""""
11,1,"""","""","""","""","""",html-keyboard-response,10,86553,0.0-3.0-2.0-2.1,null,INCORRECT!,null,"""","""",,2021-10-21 17:53:46,99.144.119.216,"Mozilla/5.0 (Macintosh; Intel Mac OS X 10_15_7) AppleWebKit/537.36 (KHTML, like Gecko) Chrome/94.0.4606.81 Safari/537.36",Macintosh,Chrome,94.0.4606.81,OS X,10_15_7,926ba5ee4bcd910686018d7b36652dc0,"""","""","""",feedback,""""
11,1,"""","""","""","""","""",image-keyboard-response,11,88556,0.0-3.0-2.0-0.2,null,img/fixation.png,null,fixation,"""",,2021-10-21 17:53:46,99.144.119.216,"Mozilla/5.0 (Macintosh; Intel Mac OS X 10_15_7) AppleWebKit/537.36 (KHTML, like Gecko) Chrome/94.0.4606.81 Safari/537.36",Macintosh,Chrome,94.0.4606.81,OS X,10_15_7,926ba5ee4bcd910686018d7b36652dc0,"""","""","""","""",""""
11,1,"""","""","""","""","""",image-keyboard-response,12,88890,0.0-3.0-2.0-1.2,330.60000002384186,img/heart_left.png,f,practice,f,,2021-10-21 17:53:46,99.144.119.216,"Mozilla/5.0 (Macintosh; Intel Mac OS X 10_15_7) AppleWebKit/537.36 (KHTML, like Gecko) Chrome/94.0.4606.81 Safari/537.36",Macintosh,Chrome,94.0.4606.81,OS X,10_15_7,926ba5ee4bcd910686018d7b36652dc0,"""","""",1,"""",""""
11,1,"""","""","""","""","""",html-keyboard-response,13,89894,0.0-3.0-2.0-2.2,null,CORRECT!,null,"""","""",,2021-10-21 17:53:46,99.144.119.216,"Mozilla/5.0 (Macintosh; Intel Mac OS X 10_15_7) AppleWebKit/537.36 (KHTML, like Gecko) Chrome/94.0.4606.81 Safari/537.36",Macintosh,Chrome,94.0.4606.81,OS X,10_15_7,926ba5ee4bcd910686018d7b36652dc0,"""","""","""",feedback,""""
11,1,"""","""","""","""","""",image-keyboard-response,14,91153,0.0-3.0-2.0-0.3,null,img/fixation.png,null,fixation,"""",,2021-10-21 17:53:46,99.144.119.216,"Mozilla/5.0 (Macintosh; Intel Mac OS X 10_15_7) AppleWebKit/537.36 (KHTML, like Gecko) Chrome/94.0.4606.81 Safari/537.36",Macintosh,Chrome,94.0.4606.81,OS X,10_15_7,926ba5ee4bcd910686018d7b36652dc0,"""","""","""","""",""""
11,1,"""","""","""","""","""",image-keyboard-response,15,91732,0.0-3.0-2.0-1.3,575.5,img/heart_left.png,f,practice,f,,2021-10-21 17:53:46,99.144.119.216,"Mozilla/5.0 (Macintosh; Intel Mac OS X 10_15_7) AppleWebKit/537.36 (KHTML, like Gecko) Chrome/94.0.4606.81 Safari/537.36",Macintosh,Chrome,94.0.4606.81,OS X,10_15_7,926ba5ee4bcd910686018d7b36652dc0,"""","""",1,"""",""""
11,1,"""","""","""","""","""",html-keyboard-response,16,92738,0.0-3.0-2.0-2.3,null,CORRECT!,null,"""","""",,2021-10-21 17:53:46,99.144.119.216,"Mozilla/5.0 (Macintosh; Intel Mac OS X 10_15_7) AppleWebKit/537.36 (KHTML, like Gecko) Chrome/94.0.4606.81 Safari/537.36",Macintosh,Chrome,94.0.4606.81,OS X,10_15_7,926ba5ee4bcd910686018d7b36652dc0,"""","""","""",feedback,""""
11,1,"""","""","""","""","""",image-keyboard-response,17,92993,0.0-3.0-2.0-0.4,null,img/fixation.png,null,fixation,"""",,2021-10-21 17:53:46,99.144.119.216,"Mozilla/5.0 (Macintosh; Intel Mac OS X 10_15_7) AppleWebKit/537.36 (KHTML, like Gecko) Chrome/94.0.4606.81 Safari/537.36",Macintosh,Chrome,94.0.4606.81,OS X,10_15_7,926ba5ee4bcd910686018d7b36652dc0,"""","""","""","""",""""
11,1,"""","""","""","""","""",image-keyboard-response,18,93548,0.0-3.0-2.0-1.4,553.7999999821186,img/heart_left.png,f,practice,f,,2021-10-21 17:53:46,99.144.119.216,"Mozilla/5.0 (Macintosh; Intel Mac OS X 10_15_7) AppleWebKit/537.36 (KHTML, like Gecko) Chrome/94.0.4606.81 Safari/537.36",Macintosh,Chrome,94.0.4606.81,OS X,10_15_7,926ba5ee4bcd910686018d7b36652dc0,"""","""",1,"""",""""
11,1,"""","""","""","""","""",html-keyboard-response,19,94552,0.0-3.0-2.0-2.4,null,CORRECT!,null,"""","""",,2021-10-21 17:53:46,99.144.119.216,"Mozilla/5.0 (Macintosh; Intel Mac OS X 10_15_7) AppleWebKit/537.36 (KHTML, like Gecko) Chrome/94.0.4606.81 Safari/537.36",Macintosh,Chrome,94.0.4606.81,OS X,10_15_7,926ba5ee4bcd910686018d7b36652dc0,"""","""","""",feedback,""""
11,1,"""","""","""","""","""",image-keyboard-response,20,95308,0.0-3.0-2.0-0.5,null,img/fixation.png,null,fixation,"""",,2021-10-21 17:53:46,99.144.119.216,"Mozilla/5.0 (Macintosh; Intel Mac OS X 10_15_7) AppleWebKit/537.36 (KHTML, like Gecko) Chrome/94.0.4606.81 Safari/537.36",Macintosh,Chrome,94.0.4606.81,OS X,10_15_7,926ba5ee4bcd910686018d7b36652dc0,"""","""","""","""",""""
11,1,"""","""","""","""","""",image-keyboard-response,21,96694,0.0-3.0-2.0-1.5,1384.0999999940395,img/heart_right.png,j,practice,j,,2021-10-21 17:53:46,99.144.119.216,"Mozilla/5.0 (Macintosh; Intel Mac OS X 10_15_7) AppleWebKit/537.36 (KHTML, like Gecko) Chrome/94.0.4606.81 Safari/537.36",Macintosh,Chrome,94.0.4606.81,OS X,10_15_7,926ba5ee4bcd910686018d7b36652dc0,"""","""",1,"""",""""
11,1,"""","""","""","""","""",html-keyboard-response,22,97702,0.0-3.0-2.0-2.5,null,CORRECT!,null,"""","""",,2021-10-21 17:53:46,99.144.119.216,"Mozilla/5.0 (Macintosh; Intel Mac OS X 10_15_7) AppleWebKit/537.36 (KHTML, like Gecko) Chrome/94.0.4606.81 Safari/537.36",Macintosh,Chrome,94.0.4606.81,OS X,10_15_7,926ba5ee4bcd910686018d7b36652dc0,"""","""","""",feedback,""""
11,1,"""","""","""","""","""",image-keyboard-response,23,98955,0.0-3.0-2.0-0.6,null,img/fixation.png,null,fixation,"""",,2021-10-21 17:53:46,99.144.119.216,"Mozilla/5.0 (Macintosh; Intel Mac OS X 10_15_7) AppleWebKit/537.36 (KHTML, like Gecko) Chrome/94.0.4606.81 Safari/537.36",Macintosh,Chrome,94.0.4606.81,OS X,10_15_7,926ba5ee4bcd910686018d7b36652dc0,"""","""","""","""",""""
11,1,"""","""","""","""","""",image-keyboard-response,24,99325,0.0-3.0-2.0-1.6,366.80000001192093,img/heart_right.png,j,practice,j,,2021-10-21 17:53:46,99.144.119.216,"Mozilla/5.0 (Macintosh; Intel Mac OS X 10_15_7) AppleWebKit/537.36 (KHTML, like Gecko) Chrome/94.0.4606.81 Safari/537.36",Macintosh,Chrome,94.0.4606.81,OS X,10_15_7,926ba5ee4bcd910686018d7b36652dc0,"""","""",1,"""",""""
11,1,"""","""","""","""","""",html-keyboard-response,25,100332,0.0-3.0-2.0-2.6,null,CORRECT!,null,"""","""",,2021-10-21 17:53:46,99.144.119.216,"Mozilla/5.0 (Macintosh; Intel Mac OS X 10_15_7) AppleWebKit/537.36 (KHTML, like Gecko) Chrome/94.0.4606.81 Safari/537.36",Macintosh,Chrome,94.0.4606.81,OS X,10_15_7,926ba5ee4bcd910686018d7b36652dc0,"""","""","""",feedback,""""
11,1,"""","""","""","""","""",image-keyboard-response,26,101102,0.0-3.0-2.0-0.7,null,img/fixation.png,null,fixation,"""",,2021-10-21 17:53:46,99.144.119.216,"Mozilla/5.0 (Macintosh; Intel Mac OS X 10_15_7) AppleWebKit/537.36 (KHTML, like Gecko) Chrome/94.0.4606.81 Safari/537.36",Macintosh,Chrome,94.0.4606.81,OS X,10_15_7,926ba5ee4bcd910686018d7b36652dc0,"""","""","""","""",""""
11,1,"""","""","""","""","""",image-keyboard-response,27,101564,0.0-3.0-2.0-1.7,460.40000000596046,img/heart_right.png,j,practice,j,,2021-10-21 17:53:46,99.144.119.216,"Mozilla/5.0 (Macintosh; Intel Mac OS X 10_15_7) AppleWebKit/537.36 (KHTML, like Gecko) Chrome/94.0.4606.81 Safari/537.36",Macintosh,Chrome,94.0.4606.81,OS X,10_15_7,926ba5ee4bcd910686018d7b36652dc0,"""","""",1,"""",""""
11,1,"""","""","""","""","""",html-keyboard-response,28,102566,0.0-3.0-2.0-2.7,null,CORRECT!,null,"""","""",,2021-10-21 17:53:46,99.144.119.216,"Mozilla/5.0 (Macintosh; Intel Mac OS X 10_15_7) AppleWebKit/537.36 (KHTML, like Gecko) Chrome/94.0.4606.81 Safari/537.36",Macintosh,Chrome,94.0.4606.81,OS X,10_15_7,926ba5ee4bcd910686018d7b36652dc0,"""","""","""",feedback,""""
11,1,"""","""","""","""","""",image-keyboard-response,29,103327,0.0-3.0-2.0-0.8,null,img/fixation.png,null,fixation,"""",,2021-10-21 17:53:46,99.144.119.216,"Mozilla/5.0 (Macintosh; Intel Mac OS X 10_15_7) AppleWebKit/537.36 (KHTML, like Gecko) Chrome/94.0.4606.81 Safari/537.36",Macintosh,Chrome,94.0.4606.81,OS X,10_15_7,926ba5ee4bcd910686018d7b36652dc0,"""","""","""","""",""""
11,1,"""","""","""","""","""",image-keyboard-response,30,104088,0.0-3.0-2.0-1.8,758.6999999880791,img/flower_right.png,f,practice,f,,2021-10-21 17:53:46,99.144.119.216,"Mozilla/5.0 (Macintosh; Intel Mac OS X 10_15_7) AppleWebKit/537.36 (KHTML, like Gecko) Chrome/94.0.4606.81 Safari/537.36",Macintosh,Chrome,94.0.4606.81,OS X,10_15_7,926ba5ee4bcd910686018d7b36652dc0,"""","""",1,"""",""""
11,1,"""","""","""","""","""",html-keyboard-response,31,105094,0.0-3.0-2.0-2.8,null,CORRECT!,null,"""","""",,2021-10-21 17:53:46,99.144.119.216,"Mozilla/5.0 (Macintosh; Intel Mac OS X 10_15_7) AppleWebKit/537.36 (KHTML, like Gecko) Chrome/94.0.4606.81 Safari/537.36",Macintosh,Chrome,94.0.4606.81,OS X,10_15_7,926ba5ee4bcd910686018d7b36652dc0,"""","""","""",feedback,""""
11,1,"""","""","""","""","""",image-keyboard-response,32,106102,0.0-3.0-2.0-0.9,null,img/fixation.png,null,fixation,"""",,2021-10-21 17:53:46,99.144.119.216,"Mozilla/5.0 (Macintosh; Intel Mac OS X 10_15_7) AppleWebKit/537.36 (KHTML, like Gecko) Chrome/94.0.4606.81 Safari/537.36",Macintosh,Chrome,94.0.4606.81,OS X,10_15_7,926ba5ee4bcd910686018d7b36652dc0,"""","""","""","""",""""
11,1,"""","""","""","""","""",image-keyboard-response,33,106836,0.0-3.0-2.0-1.9,731.9000000059605,img/flower_right.png,f,practice,f,,2021-10-21 17:53:46,99.144.119.216,"Mozilla/5.0 (Macintosh; Intel Mac OS X 10_15_7) AppleWebKit/537.36 (KHTML, like Gecko) Chrome/94.0.4606.81 Safari/537.36",Macintosh,Chrome,94.0.4606.81,OS X,10_15_7,926ba5ee4bcd910686018d7b36652dc0,"""","""",1,"""",""""
11,1,"""","""","""","""","""",html-keyboard-response,34,107841,0.0-3.0-2.0-2.9,null,CORRECT!,null,"""","""",,2021-10-21 17:53:46,99.144.119.216,"Mozilla/5.0 (Macintosh; Intel Mac OS X 10_15_7) AppleWebKit/537.36 (KHTML, like Gecko) Chrome/94.0.4606.81 Safari/537.36",Macintosh,Chrome,94.0.4606.81,OS X,10_15_7,926ba5ee4bcd910686018d7b36652dc0,"""","""","""",feedback,""""
11,1,"""","""","""","""","""",image-button-response,35,110515,0.0-3.0-3.0-0.0,2669.4000000059605,repeat_instructions.png,0,"""","""",,2021-10-21 17:53:46,99.144.119.216,"Mozilla/5.0 (Macintosh; Intel Mac OS X 10_15_7) AppleWebKit/537.36 (KHTML, like Gecko) Chrome/94.0.4606.81 Safari/537.36",Macintosh,Chrome,94.0.4606.81,OS X,10_15_7,926ba5ee4bcd910686018d7b36652dc0,"""","""","""","""",""""
11,1,"""","""","""","""","""",instructions,36,122563,0.0-3.1-0.1,12042.800000011921,"""","""","""","""",,2021-10-21 17:53:46,99.144.119.216,"Mozilla/5.0 (Macintosh; Intel Mac OS X 10_15_7) AppleWebKit/537.36 (KHTML, like Gecko) Chrome/94.0.4606.81 Safari/537.36",Macintosh,Chrome,94.0.4606.81,OS X,10_15_7,926ba5ee4bcd910686018d7b36652dc0,"""","[{""page_index"":0,""viewing_time"":1411.800000011921},{""page_index"":1,""viewing_time"":1052.300000011921},{""page_index"":2,""viewing_time"":2616.2999999821186},{""page_index"":3,""viewing_time"":973.2000000178814},{""page_index"":4,""viewing_time"":3460},{""page_index"":5,""viewing_time"":1624.0999999940395},{""page_index"":6,""viewing_time"":904.5999999940395}]","""","""",""""
11,1,"""","""","""","""","""",image-button-response,37,123673,0.0-3.1-1.1,1107.800000011921,begin_practice.png,0,"""","""",,2021-10-21 17:53:46,99.144.119.216,"Mozilla/5.0 (Macintosh; Intel Mac OS X 10_15_7) AppleWebKit/537.36 (KHTML, like Gecko) Chrome/94.0.4606.81 Safari/537.36",Macintosh,Chrome,94.0.4606.81,OS X,10_15_7,926ba5ee4bcd910686018d7b36652dc0,"""","""","""","""",""""
11,1,"""","""","""","""","""",image-keyboard-response,38,127685,0.0-3.1-2.1-0.10,null,img/fixation.png,null,fixation,"""",,2021-10-21 17:53:46,99.144.119.216,"Mozilla/5.0 (Macintosh; Intel Mac OS X 10_15_7) AppleWebKit/537.36 (KHTML, like Gecko) Chrome/94.0.4606.81 Safari/537.36",Macintosh,Chrome,94.0.4606.81,OS X,10_15_7,926ba5ee4bcd910686018d7b36652dc0,"""","""","""","""",""""
11,1,"""","""","""","""","""",image-keyboard-response,39,128622,0.0-3.1-2.1-1.10,935.6999999880791,img/heart_right.png,j,practice,j,,2021-10-21 17:53:46,99.144.119.216,"Mozilla/5.0 (Macintosh; Intel Mac OS X 10_15_7) AppleWebKit/537.36 (KHTML, like Gecko) Chrome/94.0.4606.81 Safari/537.36",Macintosh,Chrome,94.0.4606.81,OS X,10_15_7,926ba5ee4bcd910686018d7b36652dc0,"""","""",1,"""",""""
11,1,"""","""","""","""","""",html-keyboard-response,40,129627,0.0-3.1-2.1-2.10,null,CORRECT!,null,"""","""",,2021-10-21 17:53:46,99.144.119.216,"Mozilla/5.0 (Macintosh; Intel Mac OS X 10_15_7) AppleWebKit/537.36 (KHTML, like Gecko) Chrome/94.0.4606.81 Safari/537.36",Macintosh,Chrome,94.0.4606.81,OS X,10_15_7,926ba5ee4bcd910686018d7b36652dc0,"""","""","""",feedback,""""
11,1,"""","""","""","""","""",image-keyboard-response,41,131388,0.0-3.1-2.1-0.11,null,img/fixation.png,null,fixation,"""",,2021-10-21 17:53:46,99.144.119.216,"Mozilla/5.0 (Macintosh; Intel Mac OS X 10_15_7) AppleWebKit/537.36 (KHTML, like Gecko) Chrome/94.0.4606.81 Safari/537.36",Macintosh,Chrome,94.0.4606.81,OS X,10_15_7,926ba5ee4bcd910686018d7b36652dc0,"""","""","""","""",""""
11,1,"""","""","""","""","""",image-keyboard-response,42,132259,0.0-3.1-2.1-1.11,868.2000000178814,img/heart_right.png,j,practice,j,,2021-10-21 17:53:46,99.144.119.216,"Mozilla/5.0 (Macintosh; Intel Mac OS X 10_15_7) AppleWebKit/537.36 (KHTML, like Gecko) Chrome/94.0.4606.81 Safari/537.36",Macintosh,Chrome,94.0.4606.81,OS X,10_15_7,926ba5ee4bcd910686018d7b36652dc0,"""","""",1,"""",""""
11,1,"""","""","""","""","""",html-keyboard-response,43,133264,0.0-3.1-2.1-2.11,null,CORRECT!,null,"""","""",,2021-10-21 17:53:46,99.144.119.216,"Mozilla/5.0 (Macintosh; Intel Mac OS X 10_15_7) AppleWebKit/537.36 (KHTML, like Gecko) Chrome/94.0.4606.81 Safari/537.36",Macintosh,Chrome,94.0.4606.81,OS X,10_15_7,926ba5ee4bcd910686018d7b36652dc0,"""","""","""",feedback,""""
11,1,"""","""","""","""","""",image-keyboard-response,44,135018,0.0-3.1-2.1-0.12,null,img/fixation.png,null,fixation,"""",,2021-10-21 17:53:46,99.144.119.216,"Mozilla/5.0 (Macintosh; Intel Mac OS X 10_15_7) AppleWebKit/537.36 (KHTML, like Gecko) Chrome/94.0.4606.81 Safari/537.36",Macintosh,Chrome,94.0.4606.81,OS X,10_15_7,926ba5ee4bcd910686018d7b36652dc0,"""","""","""","""",""""
11,1,"""","""","""","""","""",image-keyboard-response,45,135780,0.0-3.1-2.1-1.12,751.1999999880791,img/flower_right.png,f,practice,f,,2021-10-21 17:53:46,99.144.119.216,"Mozilla/5.0 (Macintosh; Intel Mac OS X 10_15_7) AppleWebKit/537.36 (KHTML, like Gecko) Chrome/94.0.4606.81 Safari/537.36",Macintosh,Chrome,94.0.4606.81,OS X,10_15_7,926ba5ee4bcd910686018d7b36652dc0,"""","""",1,"""",""""
11,1,"""","""","""","""","""",html-keyboard-response,46,136788,0.0-3.1-2.1-2.12,null,CORRECT!,null,"""","""",,2021-10-21 17:53:46,99.144.119.216,"Mozilla/5.0 (Macintosh; Intel Mac OS X 10_15_7) AppleWebKit/537.36 (KHTML, like Gecko) Chrome/94.0.4606.81 Safari/537.36",Macintosh,Chrome,94.0.4606.81,OS X,10_15_7,926ba5ee4bcd910686018d7b36652dc0,"""","""","""",feedback,""""
11,1,"""","""","""","""","""",image-keyboard-response,47,137043,0.0-3.1-2.1-0.13,null,img/fixation.png,null,fixation,"""",,2021-10-21 17:53:46,99.144.119.216,"Mozilla/5.0 (Macintosh; Intel Mac OS X 10_15_7) AppleWebKit/537.36 (KHTML, like Gecko) Chrome/94.0.4606.81 Safari/537.36",Macintosh,Chrome,94.0.4606.81,OS X,10_15_7,926ba5ee4bcd910686018d7b36652dc0,"""","""","""","""",""""
11,1,"""","""","""","""","""",image-keyboard-response,48,137965,0.0-3.1-2.1-1.13,920,img/flower_left.png,j,practice,j,,2021-10-21 17:53:46,99.144.119.216,"Mozilla/5.0 (Macintosh; Intel Mac OS X 10_15_7) AppleWebKit/537.36 (KHTML, like Gecko) Chrome/94.0.4606.81 Safari/537.36",Macintosh,Chrome,94.0.4606.81,OS X,10_15_7,926ba5ee4bcd910686018d7b36652dc0,"""","""",1,"""",""""
11,1,"""","""","""","""","""",html-keyboard-response,49,138970,0.0-3.1-2.1-2.13,null,CORRECT!,null,"""","""",,2021-10-21 17:53:46,99.144.119.216,"Mozilla/5.0 (Macintosh; Intel Mac OS X 10_15_7) AppleWebKit/537.36 (KHTML, like Gecko) Chrome/94.0.4606.81 Safari/537.36",Macintosh,Chrome,94.0.4606.81,OS X,10_15_7,926ba5ee4bcd910686018d7b36652dc0,"""","""","""",feedback,""""
11,1,"""","""","""","""","""",image-keyboard-response,50,140224,0.0-3.1-2.1-0.14,null,img/fixation.png,null,fixation,"""",,2021-10-21 17:53:46,99.144.119.216,"Mozilla/5.0 (Macintosh; Intel Mac OS X 10_15_7) AppleWebKit/537.36 (KHTML, like Gecko) Chrome/94.0.4606.81 Safari/537.36",Macintosh,Chrome,94.0.4606.81,OS X,10_15_7,926ba5ee4bcd910686018d7b36652dc0,"""","""","""","""",""""
11,1,"""","""","""","""","""",image-keyboard-response,51,141032,0.0-3.1-2.1-1.14,805.8000000119209,img/flower_right.png,f,practice,f,,2021-10-21 17:53:46,99.144.119.216,"Mozilla/5.0 (Macintosh; Intel Mac OS X 10_15_7) AppleWebKit/537.36 (KHTML, like Gecko) Chrome/94.0.4606.81 Safari/537.36",Macintosh,Chrome,94.0.4606.81,OS X,10_15_7,926ba5ee4bcd910686018d7b36652dc0,"""","""",1,"""",""""
11,1,"""","""","""","""","""",html-keyboard-response,52,142042,0.0-3.1-2.1-2.14,null,CORRECT!,null,"""","""",,2021-10-21 17:53:46,99.144.119.216,"Mozilla/5.0 (Macintosh; Intel Mac OS X 10_15_7) AppleWebKit/537.36 (KHTML, like Gecko) Chrome/94.0.4606.81 Safari/537.36",Macintosh,Chrome,94.0.4606.81,OS X,10_15_7,926ba5ee4bcd910686018d7b36652dc0,"""","""","""",feedback,""""
11,1,"""","""","""","""","""",image-keyboard-response,53,142298,0.0-3.1-2.1-0.15,null,img/fixation.png,null,fixation,"""",,2021-10-21 17:53:46,99.144.119.216,"Mozilla/5.0 (Macintosh; Intel Mac OS X 10_15_7) AppleWebKit/537.36 (KHTML, like Gecko) Chrome/94.0.4606.81 Safari/537.36",Macintosh,Chrome,94.0.4606.81,OS X,10_15_7,926ba5ee4bcd910686018d7b36652dc0,"""","""","""","""",""""
11,1,"""","""","""","""","""",image-keyboard-response,54,143184,0.0-3.1-2.1-1.15,884.0999999940395,img/heart_left.png,f,practice,f,,2021-10-21 17:53:46,99.144.119.216,"Mozilla/5.0 (Macintosh; Intel Mac OS X 10_15_7) AppleWebKit/537.36 (KHTML, like Gecko) Chrome/94.0.4606.81 Safari/537.36",Macintosh,Chrome,94.0.4606.81,OS X,10_15_7,926ba5ee4bcd910686018d7b36652dc0,"""","""",1,"""",""""
11,1,"""","""","""","""","""",html-keyboard-response,55,144191,0.0-3.1-2.1-2.15,null,CORRECT!,null,"""","""",,2021-10-21 17:53:46,99.144.119.216,"Mozilla/5.0 (Macintosh; Intel Mac OS X 10_15_7) AppleWebKit/537.36 (KHTML, like Gecko) Chrome/94.0.4606.81 Safari/537.36",Macintosh,Chrome,94.0.4606.81,OS X,10_15_7,926ba5ee4bcd910686018d7b36652dc0,"""","""","""",feedback,""""
11,1,"""","""","""","""","""",image-keyboard-response,56,145194,0.0-3.1-2.1-0.16,null,img/fixation.png,null,fixation,"""",,2021-10-21 17:53:46,99.144.119.216,"Mozilla/5.0 (Macintosh; Intel Mac OS X 10_15_7) AppleWebKit/537.36 (KHTML, like Gecko) Chrome/94.0.4606.81 Safari/537.36",Macintosh,Chrome,94.0.4606.81,OS X,10_15_7,926ba5ee4bcd910686018d7b36652dc0,"""","""","""","""",""""
11,1,"""","""","""","""","""",image-keyboard-response,57,146229,0.0-3.1-2.1-1.16,1032.199999988079,img/heart_left.png,f,practice,f,,2021-10-21 17:53:46,99.144.119.216,"Mozilla/5.0 (Macintosh; Intel Mac OS X 10_15_7) AppleWebKit/537.36 (KHTML, like Gecko) Chrome/94.0.4606.81 Safari/537.36",Macintosh,Chrome,94.0.4606.81,OS X,10_15_7,926ba5ee4bcd910686018d7b36652dc0,"""","""",1,"""",""""
11,1,"""","""","""","""","""",html-keyboard-response,58,147235,0.0-3.1-2.1-2.16,null,CORRECT!,null,"""","""",,2021-10-21 17:53:46,99.144.119.216,"Mozilla/5.0 (Macintosh; Intel Mac OS X 10_15_7) AppleWebKit/537.36 (KHTML, like Gecko) Chrome/94.0.4606.81 Safari/537.36",Macintosh,Chrome,94.0.4606.81,OS X,10_15_7,926ba5ee4bcd910686018d7b36652dc0,"""","""","""",feedback,""""
11,1,"""","""","""","""","""",image-keyboard-response,59,149247,0.0-3.1-2.1-0.17,null,img/fixation.png,null,fixation,"""",,2021-10-21 17:53:46,99.144.119.216,"Mozilla/5.0 (Macintosh; Intel Mac OS X 10_15_7) AppleWebKit/537.36 (KHTML, like Gecko) Chrome/94.0.4606.81 Safari/537.36",Macintosh,Chrome,94.0.4606.81,OS X,10_15_7,926ba5ee4bcd910686018d7b36652dc0,"""","""","""","""",""""
11,1,"""","""","""","""","""",image-keyboard-response,60,150292,0.0-3.1-2.1-1.17,1043.3999999761581,img/heart_right.png,j,practice,j,,2021-10-21 17:53:46,99.144.119.216,"Mozilla/5.0 (Macintosh; Intel Mac OS X 10_15_7) AppleWebKit/537.36 (KHTML, like Gecko) Chrome/94.0.4606.81 Safari/537.36",Macintosh,Chrome,94.0.4606.81,OS X,10_15_7,926ba5ee4bcd910686018d7b36652dc0,"""","""",1,"""",""""
11,1,"""","""","""","""","""",html-keyboard-response,61,151295,0.0-3.1-2.1-2.17,null,CORRECT!,null,"""","""",,2021-10-21 17:53:46,99.144.119.216,"Mozilla/5.0 (Macintosh; Intel Mac OS X 10_15_7) AppleWebKit/537.36 (KHTML, like Gecko) Chrome/94.0.4606.81 Safari/537.36",Macintosh,Chrome,94.0.4606.81,OS X,10_15_7,926ba5ee4bcd910686018d7b36652dc0,"""","""","""",feedback,""""
11,1,"""","""","""","""","""",image-keyboard-response,62,152800,0.0-3.1-2.1-0.18,null,img/fixation.png,null,fixation,"""",,2021-10-21 17:53:46,99.144.119.216,"Mozilla/5.0 (Macintosh; Intel Mac OS X 10_15_7) AppleWebKit/537.36 (KHTML, like Gecko) Chrome/94.0.4606.81 Safari/537.36",Macintosh,Chrome,94.0.4606.81,OS X,10_15_7,926ba5ee4bcd910686018d7b36652dc0,"""","""","""","""",""""
11,1,"""","""","""","""","""",image-keyboard-response,63,153873,0.0-3.1-2.1-1.18,1061.8999999761581,img/heart_right.png,j,practice,j,,2021-10-21 17:53:46,99.144.119.216,"Mozilla/5.0 (Macintosh; Intel Mac OS X 10_15_7) AppleWebKit/537.36 (KHTML, like Gecko) Chrome/94.0.4606.81 Safari/537.36",Macintosh,Chrome,94.0.4606.81,OS X,10_15_7,926ba5ee4bcd910686018d7b36652dc0,"""","""",1,"""",""""
11,1,"""","""","""","""","""",html-keyboard-response,64,154879,0.0-3.1-2.1-2.18,null,CORRECT!,null,"""","""",,2021-10-21 17:53:46,99.144.119.216,"Mozilla/5.0 (Macintosh; Intel Mac OS X 10_15_7) AppleWebKit/537.36 (KHTML, like Gecko) Chrome/94.0.4606.81 Safari/537.36",Macintosh,Chrome,94.0.4606.81,OS X,10_15_7,926ba5ee4bcd910686018d7b36652dc0,"""","""","""",feedback,""""
11,1,"""","""","""","""","""",image-keyboard-response,65,155882,0.0-3.1-2.1-0.19,null,img/fixation.png,null,fixation,"""",,2021-10-21 17:53:46,99.144.119.216,"Mozilla/5.0 (Macintosh; Intel Mac OS X 10_15_7) AppleWebKit/537.36 (KHTML, like Gecko) Chrome/94.0.4606.81 Safari/537.36",Macintosh,Chrome,94.0.4606.81,OS X,10_15_7,926ba5ee4bcd910686018d7b36652dc0,"""","""","""","""",""""
11,1,"""","""","""","""","""",image-keyboard-response,66,156771,0.0-3.1-2.1-1.19,887.0999999940395,img/flower_right.png,f,practice,f,,2021-10-21 17:53:46,99.144.119.216,"Mozilla/5.0 (Macintosh; Intel Mac OS X 10_15_7) AppleWebKit/537.36 (KHTML, like Gecko) Chrome/94.0.4606.81 Safari/537.36",Macintosh,Chrome,94.0.4606.81,OS X,10_15_7,926ba5ee4bcd910686018d7b36652dc0,"""","""",1,"""",""""
11,1,"""","""","""","""","""",html-keyboard-response,67,157775,0.0-3.1-2.1-2.19,null,CORRECT!,null,"""","""",,2021-10-21 17:53:46,99.144.119.216,"Mozilla/5.0 (Macintosh; Intel Mac OS X 10_15_7) AppleWebKit/537.36 (KHTML, like Gecko) Chrome/94.0.4606.81 Safari/537.36",Macintosh,Chrome,94.0.4606.81,OS X,10_15_7,926ba5ee4bcd910686018d7b36652dc0,"""","""","""",feedback,""""
11,1,"""","""","""","""","""",image-button-response,68,161963,0.0-4.0,4178.5999999940395,img/begin_experiment.png,0,"""","""",,2021-10-21 17:53:46,99.144.119.216,"Mozilla/5.0 (Macintosh; Intel Mac OS X 10_15_7) AppleWebKit/537.36 (KHTML, like Gecko) Chrome/94.0.4606.81 Safari/537.36",Macintosh,Chrome,94.0.4606.81,OS X,10_15_7,926ba5ee4bcd910686018d7b36652dc0,"""","""","""","""",""""
11,1,"""","""","""","""","""",image-keyboard-response,69,165471,0.0-5.0-0.0,null,img/fixation.png,null,fixation,"""",,2021-10-21 17:53:46,99.144.119.216,"Mozilla/5.0 (Macintosh; Intel Mac OS X 10_15_7) AppleWebKit/537.36 (KHTML, like Gecko) Chrome/94.0.4606.81 Safari/537.36",Macintosh,Chrome,94.0.4606.81,OS X,10_15_7,926ba5ee4bcd910686018d7b36652dc0,"""","""","""","""",1
11,1,"""","""","""","""","""",image-keyboard-response,70,166431,0.0-5.0-1.0,957.5,img/flower_right.png,f,response,f,,2021-10-21 17:53:46,99.144.119.216,"Mozilla/5.0 (Macintosh; Intel Mac OS X 10_15_7) AppleWebKit/537.36 (KHTML, like Gecko) Chrome/94.0.4606.81 Safari/537.36",Macintosh,Chrome,94.0.4606.81,OS X,10_15_7,926ba5ee4bcd910686018d7b36652dc0,"""","""",1,"""",1
11,1,"""","""","""","""","""",image-keyboard-response,71,168188,0.0-5.0-0.1,null,img/fixation.png,null,fixation,"""",,2021-10-21 17:53:46,99.144.119.216,"Mozilla/5.0 (Macintosh; Intel Mac OS X 10_15_7) AppleWebKit/537.36 (KHTML, like Gecko) Chrome/94.0.4606.81 Safari/537.36",Macintosh,Chrome,94.0.4606.81,OS X,10_15_7,926ba5ee4bcd910686018d7b36652dc0,"""","""","""","""",1
11,1,"""","""","""","""","""",image-keyboard-response,72,169138,0.0-5.0-1.1,940.0999999940395,img/heart_left.png,f,response,f,,2021-10-21 17:53:46,99.144.119.216,"Mozilla/5.0 (Macintosh; Intel Mac OS X 10_15_7) AppleWebKit/537.36 (KHTML, like Gecko) Chrome/94.0.4606.81 Safari/537.36",Macintosh,Chrome,94.0.4606.81,OS X,10_15_7,926ba5ee4bcd910686018d7b36652dc0,"""","""",1,"""",1
11,1,"""","""","""","""","""",image-keyboard-response,73,170394,0.0-5.0-0.2,null,img/fixation.png,null,fixation,"""",,2021-10-21 17:53:46,99.144.119.216,"Mozilla/5.0 (Macintosh; Intel Mac OS X 10_15_7) AppleWebKit/537.36 (KHTML, like Gecko) Chrome/94.0.4606.81 Safari/537.36",Macintosh,Chrome,94.0.4606.81,OS X,10_15_7,926ba5ee4bcd910686018d7b36652dc0,"""","""","""","""",1
11,1,"""","""","""","""","""",image-keyboard-response,74,171314,0.0-5.0-1.2,917.7999999821186,img/flower_left.png,j,response,j,,2021-10-21 17:53:46,99.144.119.216,"Mozilla/5.0 (Macintosh; Intel Mac OS X 10_15_7) AppleWebKit/537.36 (KHTML, like Gecko) Chrome/94.0.4606.81 Safari/537.36",Macintosh,Chrome,94.0.4606.81,OS X,10_15_7,926ba5ee4bcd910686018d7b36652dc0,"""","""",1,"""",1
11,1,"""","""","""","""","""",html-keyboard-response,75,176804,0.0-6.0,5487.5,"<p>You responded correctly on 100% of the trials.</p>
      <p>Your average response time was 938ms.</p>
      <p>Press any key to complete the experiment. Thank you!</p>",j,"""","""",,2021-10-21 17:53:46,99.144.119.216,"Mozilla/5.0 (Macintosh; Intel Mac OS X 10_15_7) AppleWebKit/537.36 (KHTML, like Gecko) Chrome/94.0.4606.81 Safari/537.36",Macintosh,Chrome,94.0.4606.81,OS X,10_15_7,926ba5ee4bcd910686018d7b36652dc0,"""","""","""","""",""""
11,1,"""","""","""","""","""",html-button-response,76,178968,0.0-7.0,2158.0999999940395,<p>Thanks! You done gurl. Please press FINISH to save your data and get paid.</p>,0,"""","""",,2021-10-21 17:53:46,99.144.119.216,"Mozilla/5.0 (Macintosh; Intel Mac OS X 10_15_7) AppleWebKit/537.36 (KHTML, like Gecko) Chrome/94.0.4606.81 Safari/537.36",Macintosh,Chrome,94.0.4606.81,OS X,10_15_7,926ba5ee4bcd910686018d7b36652dc0,"""","""","""","""",""""
3,1,true,false,[],[],[],preload,0,561,0.0-0.0,,,,,,,2021-10-13 21:24:27,171.66.13.110,"Mozilla/5.0 (Macintosh; Intel Mac OS X 10_15_7) AppleWebKit/605.1.15 (KHTML, like Gecko) Version/15.0 Safari/605.1.15",Macintosh,Safari,15.0,OS X,10_15_7,bc9628572b5e474efdf3096316487cb2,,,,,
4,1,true,false,[],[],[],preload,0,611,0.0-0.0,"""","""","""","""","""",,2021-10-21 04:45:24,24.4.120.49,"Mozilla/5.0 (Macintosh; Intel Mac OS X 10_15_7) AppleWebKit/605.1.15 (KHTML, like Gecko) Version/15.0 Safari/605.1.15",Macintosh,Safari,15.0,OS X,10_15_7,de9144371c0adaad23f5e21f27f3cd85,"""","""","""","""",""""
4,1,true,"""","""","""","""",fullscreen,1,2482,0.0-1.0,"""","""","""","""","""",,2021-10-21 04:45:24,24.4.120.49,"Mozilla/5.0 (Macintosh; Intel Mac OS X 10_15_7) AppleWebKit/605.1.15 (KHTML, like Gecko) Version/15.0 Safari/605.1.15",Macintosh,Safari,15.0,OS X,10_15_7,de9144371c0adaad23f5e21f27f3cd85,"""","""","""","""",""""
4,1,"""","""","""","""","""",html-button-response,2,3957,0.0-2.0,1473,<p>Welcome! Thank you so much for participating in this study. Press START to begin.</p><br>,0,"""","""",,2021-10-21 04:45:24,24.4.120.49,"Mozilla/5.0 (Macintosh; Intel Mac OS X 10_15_7) AppleWebKit/605.1.15 (KHTML, like Gecko) Version/15.0 Safari/605.1.15",Macintosh,Safari,15.0,OS X,10_15_7,de9144371c0adaad23f5e21f27f3cd85,"""","""","""","""",""""
4,1,"""","""","""","""","""",instructions,3,8975,0.0-3.0-0.0,5017,"""","""","""","""",,2021-10-21 04:45:24,24.4.120.49,"Mozilla/5.0 (Macintosh; Intel Mac OS X 10_15_7) AppleWebKit/605.1.15 (KHTML, like Gecko) Version/15.0 Safari/605.1.15",Macintosh,Safari,15.0,OS X,10_15_7,de9144371c0adaad23f5e21f27f3cd85,"""","[{""page_index"":0,""viewing_time"":1324},{""page_index"":1,""viewing_time"":609},{""page_index"":2,""viewing_time"":595},{""page_index"":3,""viewing_time"":629},{""page_index"":4,""viewing_time"":586},{""page_index"":5,""viewing_time"":573},{""page_index"":6,""viewing_time"":700.0000000000018}]","""","""",""""
4,1,"""","""","""","""","""",image-keyboard-response,4,9228,0.0-3.0-1.0-0.0,null,img/fixation.png,null,fixation,"""",,2021-10-21 04:45:24,24.4.120.49,"Mozilla/5.0 (Macintosh; Intel Mac OS X 10_15_7) AppleWebKit/605.1.15 (KHTML, like Gecko) Version/15.0 Safari/605.1.15",Macintosh,Safari,15.0,OS X,10_15_7,de9144371c0adaad23f5e21f27f3cd85,"""","""","""","""",""""
4,1,"""","""","""","""","""",image-keyboard-response,5,10284,0.0-3.0-1.0-1.0,1055,img/heart_left.png,f,practice,f,,2021-10-21 04:45:24,24.4.120.49,"Mozilla/5.0 (Macintosh; Intel Mac OS X 10_15_7) AppleWebKit/605.1.15 (KHTML, like Gecko) Version/15.0 Safari/605.1.15",Macintosh,Safari,15.0,OS X,10_15_7,de9144371c0adaad23f5e21f27f3cd85,"""","""",1,"""",""""
4,1,"""","""","""","""","""",html-keyboard-response,6,11286,0.0-3.0-1.0-2.0,null,CORRECT!,null,"""","""",,2021-10-21 04:45:24,24.4.120.49,"Mozilla/5.0 (Macintosh; Intel Mac OS X 10_15_7) AppleWebKit/605.1.15 (KHTML, like Gecko) Version/15.0 Safari/605.1.15",Macintosh,Safari,15.0,OS X,10_15_7,de9144371c0adaad23f5e21f27f3cd85,"""","""","""",feedback,""""
4,1,"""","""","""","""","""",image-keyboard-response,7,11800,0.0-3.0-1.0-0.1,null,img/fixation.png,null,fixation,"""",,2021-10-21 04:45:24,24.4.120.49,"Mozilla/5.0 (Macintosh; Intel Mac OS X 10_15_7) AppleWebKit/605.1.15 (KHTML, like Gecko) Version/15.0 Safari/605.1.15",Macintosh,Safari,15.0,OS X,10_15_7,de9144371c0adaad23f5e21f27f3cd85,"""","""","""","""",""""
4,1,"""","""","""","""","""",image-keyboard-response,8,12402,0.0-3.0-1.0-1.1,586.9999999999982,img/heart_left.png,f,practice,f,,2021-10-21 04:45:24,24.4.120.49,"Mozilla/5.0 (Macintosh; Intel Mac OS X 10_15_7) AppleWebKit/605.1.15 (KHTML, like Gecko) Version/15.0 Safari/605.1.15",Macintosh,Safari,15.0,OS X,10_15_7,de9144371c0adaad23f5e21f27f3cd85,"""","""",1,"""",""""
4,1,"""","""","""","""","""",html-keyboard-response,9,13403,0.0-3.0-1.0-2.1,null,CORRECT!,null,"""","""",,2021-10-21 04:45:24,24.4.120.49,"Mozilla/5.0 (Macintosh; Intel Mac OS X 10_15_7) AppleWebKit/605.1.15 (KHTML, like Gecko) Version/15.0 Safari/605.1.15",Macintosh,Safari,15.0,OS X,10_15_7,de9144371c0adaad23f5e21f27f3cd85,"""","""","""",feedback,""""
4,1,"""","""","""","""","""",image-keyboard-response,10,13655,0.0-3.0-1.0-0.2,null,img/fixation.png,null,fixation,"""",,2021-10-21 04:45:24,24.4.120.49,"Mozilla/5.0 (Macintosh; Intel Mac OS X 10_15_7) AppleWebKit/605.1.15 (KHTML, like Gecko) Version/15.0 Safari/605.1.15",Macintosh,Safari,15.0,OS X,10_15_7,de9144371c0adaad23f5e21f27f3cd85,"""","""","""","""",""""
4,1,"""","""","""","""","""",image-keyboard-response,11,14378,0.0-3.0-1.0-1.2,721,img/heart_right.png,j,practice,j,,2021-10-21 04:45:24,24.4.120.49,"Mozilla/5.0 (Macintosh; Intel Mac OS X 10_15_7) AppleWebKit/605.1.15 (KHTML, like Gecko) Version/15.0 Safari/605.1.15",Macintosh,Safari,15.0,OS X,10_15_7,de9144371c0adaad23f5e21f27f3cd85,"""","""",1,"""",""""
4,1,"""","""","""","""","""",html-keyboard-response,12,15381,0.0-3.0-1.0-2.2,null,CORRECT!,null,"""","""",,2021-10-21 04:45:24,24.4.120.49,"Mozilla/5.0 (Macintosh; Intel Mac OS X 10_15_7) AppleWebKit/605.1.15 (KHTML, like Gecko) Version/15.0 Safari/605.1.15",Macintosh,Safari,15.0,OS X,10_15_7,de9144371c0adaad23f5e21f27f3cd85,"""","""","""",feedback,""""
4,1,"""","""","""","""","""",image-keyboard-response,13,16382,0.0-3.0-1.0-0.3,null,img/fixation.png,null,fixation,"""",,2021-10-21 04:45:24,24.4.120.49,"Mozilla/5.0 (Macintosh; Intel Mac OS X 10_15_7) AppleWebKit/605.1.15 (KHTML, like Gecko) Version/15.0 Safari/605.1.15",Macintosh,Safari,15.0,OS X,10_15_7,de9144371c0adaad23f5e21f27f3cd85,"""","""","""","""",""""
4,1,"""","""","""","""","""",image-keyboard-response,14,17259,0.0-3.0-1.0-1.3,875,img/flower_right.png,f,practice,f,,2021-10-21 04:45:24,24.4.120.49,"Mozilla/5.0 (Macintosh; Intel Mac OS X 10_15_7) AppleWebKit/605.1.15 (KHTML, like Gecko) Version/15.0 Safari/605.1.15",Macintosh,Safari,15.0,OS X,10_15_7,de9144371c0adaad23f5e21f27f3cd85,"""","""",1,"""",""""
4,1,"""","""","""","""","""",html-keyboard-response,15,18261,0.0-3.0-1.0-2.3,null,CORRECT!,null,"""","""",,2021-10-21 04:45:24,24.4.120.49,"Mozilla/5.0 (Macintosh; Intel Mac OS X 10_15_7) AppleWebKit/605.1.15 (KHTML, like Gecko) Version/15.0 Safari/605.1.15",Macintosh,Safari,15.0,OS X,10_15_7,de9144371c0adaad23f5e21f27f3cd85,"""","""","""",feedback,""""
4,1,"""","""","""","""","""",image-keyboard-response,16,19012,0.0-3.0-1.0-0.4,null,img/fixation.png,null,fixation,"""",,2021-10-21 04:45:24,24.4.120.49,"Mozilla/5.0 (Macintosh; Intel Mac OS X 10_15_7) AppleWebKit/605.1.15 (KHTML, like Gecko) Version/15.0 Safari/605.1.15",Macintosh,Safari,15.0,OS X,10_15_7,de9144371c0adaad23f5e21f27f3cd85,"""","""","""","""",""""
4,1,"""","""","""","""","""",image-keyboard-response,17,19707,0.0-3.0-1.0-1.4,694,img/heart_left.png,j,practice,f,,2021-10-21 04:45:24,24.4.120.49,"Mozilla/5.0 (Macintosh; Intel Mac OS X 10_15_7) AppleWebKit/605.1.15 (KHTML, like Gecko) Version/15.0 Safari/605.1.15",Macintosh,Safari,15.0,OS X,10_15_7,de9144371c0adaad23f5e21f27f3cd85,"""","""",0,"""",""""
4,1,"""","""","""","""","""",html-keyboard-response,18,20710,0.0-3.0-1.0-2.4,null,INCORRECT!,null,"""","""",,2021-10-21 04:45:24,24.4.120.49,"Mozilla/5.0 (Macintosh; Intel Mac OS X 10_15_7) AppleWebKit/605.1.15 (KHTML, like Gecko) Version/15.0 Safari/605.1.15",Macintosh,Safari,15.0,OS X,10_15_7,de9144371c0adaad23f5e21f27f3cd85,"""","""","""",feedback,""""
4,1,"""","""","""","""","""",image-keyboard-response,19,20961,0.0-3.0-1.0-0.5,null,img/fixation.png,null,fixation,"""",,2021-10-21 04:45:24,24.4.120.49,"Mozilla/5.0 (Macintosh; Intel Mac OS X 10_15_7) AppleWebKit/605.1.15 (KHTML, like Gecko) Version/15.0 Safari/605.1.15",Macintosh,Safari,15.0,OS X,10_15_7,de9144371c0adaad23f5e21f27f3cd85,"""","""","""","""",""""
4,1,"""","""","""","""","""",image-keyboard-response,20,21514,0.0-3.0-1.0-1.5,551,img/heart_left.png,f,practice,f,,2021-10-21 04:45:24,24.4.120.49,"Mozilla/5.0 (Macintosh; Intel Mac OS X 10_15_7) AppleWebKit/605.1.15 (KHTML, like Gecko) Version/15.0 Safari/605.1.15",Macintosh,Safari,15.0,OS X,10_15_7,de9144371c0adaad23f5e21f27f3cd85,"""","""",1,"""",""""
4,1,"""","""","""","""","""",html-keyboard-response,21,22515,0.0-3.0-1.0-2.5,null,CORRECT!,null,"""","""",,2021-10-21 04:45:24,24.4.120.49,"Mozilla/5.0 (Macintosh; Intel Mac OS X 10_15_7) AppleWebKit/605.1.15 (KHTML, like Gecko) Version/15.0 Safari/605.1.15",Macintosh,Safari,15.0,OS X,10_15_7,de9144371c0adaad23f5e21f27f3cd85,"""","""","""",feedback,""""
4,1,"""","""","""","""","""",image-keyboard-response,22,23017,0.0-3.0-1.0-0.6,null,img/fixation.png,null,fixation,"""",,2021-10-21 04:45:24,24.4.120.49,"Mozilla/5.0 (Macintosh; Intel Mac OS X 10_15_7) AppleWebKit/605.1.15 (KHTML, like Gecko) Version/15.0 Safari/605.1.15",Macintosh,Safari,15.0,OS X,10_15_7,de9144371c0adaad23f5e21f27f3cd85,"""","""","""","""",""""
4,1,"""","""","""","""","""",image-keyboard-response,23,23793,0.0-3.0-1.0-1.6,762.0000000000036,img/flower_right.png,f,practice,f,,2021-10-21 04:45:24,24.4.120.49,"Mozilla/5.0 (Macintosh; Intel Mac OS X 10_15_7) AppleWebKit/605.1.15 (KHTML, like Gecko) Version/15.0 Safari/605.1.15",Macintosh,Safari,15.0,OS X,10_15_7,de9144371c0adaad23f5e21f27f3cd85,"""","""",1,"""",""""
4,1,"""","""","""","""","""",html-keyboard-response,24,24795,0.0-3.0-1.0-2.6,null,CORRECT!,null,"""","""",,2021-10-21 04:45:24,24.4.120.49,"Mozilla/5.0 (Macintosh; Intel Mac OS X 10_15_7) AppleWebKit/605.1.15 (KHTML, like Gecko) Version/15.0 Safari/605.1.15",Macintosh,Safari,15.0,OS X,10_15_7,de9144371c0adaad23f5e21f27f3cd85,"""","""","""",feedback,""""
4,1,"""","""","""","""","""",image-keyboard-response,25,25047,0.0-3.0-1.0-0.7,null,img/fixation.png,null,fixation,"""",,2021-10-21 04:45:24,24.4.120.49,"Mozilla/5.0 (Macintosh; Intel Mac OS X 10_15_7) AppleWebKit/605.1.15 (KHTML, like Gecko) Version/15.0 Safari/605.1.15",Macintosh,Safari,15.0,OS X,10_15_7,de9144371c0adaad23f5e21f27f3cd85,"""","""","""","""",""""
4,1,"""","""","""","""","""",image-keyboard-response,26,25907,0.0-3.0-1.0-1.7,857,img/flower_right.png,f,practice,f,,2021-10-21 04:45:24,24.4.120.49,"Mozilla/5.0 (Macintosh; Intel Mac OS X 10_15_7) AppleWebKit/605.1.15 (KHTML, like Gecko) Version/15.0 Safari/605.1.15",Macintosh,Safari,15.0,OS X,10_15_7,de9144371c0adaad23f5e21f27f3cd85,"""","""",1,"""",""""
4,1,"""","""","""","""","""",html-keyboard-response,27,26908,0.0-3.0-1.0-2.7,null,CORRECT!,null,"""","""",,2021-10-21 04:45:24,24.4.120.49,"Mozilla/5.0 (Macintosh; Intel Mac OS X 10_15_7) AppleWebKit/605.1.15 (KHTML, like Gecko) Version/15.0 Safari/605.1.15",Macintosh,Safari,15.0,OS X,10_15_7,de9144371c0adaad23f5e21f27f3cd85,"""","""","""",feedback,""""
4,1,"""","""","""","""","""",image-keyboard-response,28,28920,0.0-3.0-1.0-0.8,null,img/fixation.png,null,fixation,"""",,2021-10-21 04:45:24,24.4.120.49,"Mozilla/5.0 (Macintosh; Intel Mac OS X 10_15_7) AppleWebKit/605.1.15 (KHTML, like Gecko) Version/15.0 Safari/605.1.15",Macintosh,Safari,15.0,OS X,10_15_7,de9144371c0adaad23f5e21f27f3cd85,"""","""","""","""",""""
4,1,"""","""","""","""","""",image-keyboard-response,29,29881,0.0-3.0-1.0-1.8,959.9999999999964,img/flower_left.png,j,practice,j,,2021-10-21 04:45:24,24.4.120.49,"Mozilla/5.0 (Macintosh; Intel Mac OS X 10_15_7) AppleWebKit/605.1.15 (KHTML, like Gecko) Version/15.0 Safari/605.1.15",Macintosh,Safari,15.0,OS X,10_15_7,de9144371c0adaad23f5e21f27f3cd85,"""","""",1,"""",""""
4,1,"""","""","""","""","""",html-keyboard-response,30,30882,0.0-3.0-1.0-2.8,null,CORRECT!,null,"""","""",,2021-10-21 04:45:24,24.4.120.49,"Mozilla/5.0 (Macintosh; Intel Mac OS X 10_15_7) AppleWebKit/605.1.15 (KHTML, like Gecko) Version/15.0 Safari/605.1.15",Macintosh,Safari,15.0,OS X,10_15_7,de9144371c0adaad23f5e21f27f3cd85,"""","""","""",feedback,""""
4,1,"""","""","""","""","""",image-keyboard-response,31,32886,0.0-3.0-1.0-0.9,null,img/fixation.png,null,fixation,"""",,2021-10-21 04:45:24,24.4.120.49,"Mozilla/5.0 (Macintosh; Intel Mac OS X 10_15_7) AppleWebKit/605.1.15 (KHTML, like Gecko) Version/15.0 Safari/605.1.15",Macintosh,Safari,15.0,OS X,10_15_7,de9144371c0adaad23f5e21f27f3cd85,"""","""","""","""",""""
4,1,"""","""","""","""","""",image-keyboard-response,32,33313,0.0-3.0-1.0-1.9,414,img/heart_right.png,f,practice,j,,2021-10-21 04:45:24,24.4.120.49,"Mozilla/5.0 (Macintosh; Intel Mac OS X 10_15_7) AppleWebKit/605.1.15 (KHTML, like Gecko) Version/15.0 Safari/605.1.15",Macintosh,Safari,15.0,OS X,10_15_7,de9144371c0adaad23f5e21f27f3cd85,"""","""",0,"""",""""
4,1,"""","""","""","""","""",html-keyboard-response,33,34314,0.0-3.0-1.0-2.9,null,INCORRECT!,null,"""","""",,2021-10-21 04:45:24,24.4.120.49,"Mozilla/5.0 (Macintosh; Intel Mac OS X 10_15_7) AppleWebKit/605.1.15 (KHTML, like Gecko) Version/15.0 Safari/605.1.15",Macintosh,Safari,15.0,OS X,10_15_7,de9144371c0adaad23f5e21f27f3cd85,"""","""","""",feedback,""""
4,1,"""","""","""","""","""",image-button-response,34,36386,0.0-4.0,2069,img/begin_experiment.png,0,"""","""",,2021-10-21 04:45:24,24.4.120.49,"Mozilla/5.0 (Macintosh; Intel Mac OS X 10_15_7) AppleWebKit/605.1.15 (KHTML, like Gecko) Version/15.0 Safari/605.1.15",Macintosh,Safari,15.0,OS X,10_15_7,de9144371c0adaad23f5e21f27f3cd85,"""","""","""","""",""""
4,1,"""","""","""","""","""",image-keyboard-response,35,40139,0.0-5.0-0.0,null,img/fixation.png,null,fixation,"""",,2021-10-21 04:45:24,24.4.120.49,"Mozilla/5.0 (Macintosh; Intel Mac OS X 10_15_7) AppleWebKit/605.1.15 (KHTML, like Gecko) Version/15.0 Safari/605.1.15",Macintosh,Safari,15.0,OS X,10_15_7,de9144371c0adaad23f5e21f27f3cd85,"""","""","""","""",1
4,1,"""","""","""","""","""",image-keyboard-response,36,40940,0.0-5.0-1.0,799.0000000000073,img/heart_left.png,f,response,f,,2021-10-21 04:45:24,24.4.120.49,"Mozilla/5.0 (Macintosh; Intel Mac OS X 10_15_7) AppleWebKit/605.1.15 (KHTML, like Gecko) Version/15.0 Safari/605.1.15",Macintosh,Safari,15.0,OS X,10_15_7,de9144371c0adaad23f5e21f27f3cd85,"""","""",1,"""",1
4,1,"""","""","""","""","""",image-keyboard-response,37,42191,0.0-5.0-0.1,null,img/fixation.png,null,fixation,"""",,2021-10-21 04:45:24,24.4.120.49,"Mozilla/5.0 (Macintosh; Intel Mac OS X 10_15_7) AppleWebKit/605.1.15 (KHTML, like Gecko) Version/15.0 Safari/605.1.15",Macintosh,Safari,15.0,OS X,10_15_7,de9144371c0adaad23f5e21f27f3cd85,"""","""","""","""",1
13,1,true,,,,,fullscreen,0,13841,0.0-0.0,"""","""","""","""","""",,2021-10-24 23:06:07,50.230.95.18,"Mozilla/5.0 (Windows NT 10.0; Win64; x64) AppleWebKit/537.36 (KHTML, like Gecko) Chrome/94.0.4606.81 Safari/537.36",WebKit,Chrome,94.0.4606.81,Windows,10.0,53f68ceece7833e31002fdb274153e4f,"""","""","""","""",""""
13,1,"""",,,,,survey-text,1,20118,0.0-1.0,6265.599999904633,"""","{""Q0"":""000""}","""","""",,2021-10-24 23:06:07,50.230.95.18,"Mozilla/5.0 (Windows NT 10.0; Win64; x64) AppleWebKit/537.36 (KHTML, like Gecko) Chrome/94.0.4606.81 Safari/537.36",WebKit,Chrome,94.0.4606.81,Windows,10.0,53f68ceece7833e31002fdb274153e4f,"""","""","""","""",""""
13,1,"""",,,,,html-button-response,2,23043,0.0-2.0,2921.899999976158,<p>Welcome! Thank you so much for participating in this study. Press START to begin.</p><br>,0,"""","""",,2021-10-24 23:06:07,50.230.95.18,"Mozilla/5.0 (Windows NT 10.0; Win64; x64) AppleWebKit/537.36 (KHTML, like Gecko) Chrome/94.0.4606.81 Safari/537.36",WebKit,Chrome,94.0.4606.81,Windows,10.0,53f68ceece7833e31002fdb274153e4f,"""","""","""","""",""""
13,1,"""",,,,,instructions,3,51292,0.0-3.0-0.0,28246.200000047684,"""","""","""","""",,2021-10-24 23:06:07,50.230.95.18,"Mozilla/5.0 (Windows NT 10.0; Win64; x64) AppleWebKit/537.36 (KHTML, like Gecko) Chrome/94.0.4606.81 Safari/537.36",WebKit,Chrome,94.0.4606.81,Windows,10.0,53f68ceece7833e31002fdb274153e4f,"""","[{""page_index"":0,""viewing_time"":7830.800000071526},{""page_index"":1,""viewing_time"":4543.5},{""page_index"":2,""viewing_time"":4433.899999976158},{""page_index"":3,""viewing_time"":2998.7000000476837},{""page_index"":4,""viewing_time"":3838.7999999523163},{""page_index"":5,""viewing_time"":2846.399999976158},{""page_index"":6,""viewing_time"":1752.7000000476837}]","""","""",""""
13,1,"""",,,,,image-button-response,4,54472,0.0-3.0-1.0,3176.899999976158,begin_practice.png,0,"""","""",,2021-10-24 23:06:07,50.230.95.18,"Mozilla/5.0 (Windows NT 10.0; Win64; x64) AppleWebKit/537.36 (KHTML, like Gecko) Chrome/94.0.4606.81 Safari/537.36",WebKit,Chrome,94.0.4606.81,Windows,10.0,53f68ceece7833e31002fdb274153e4f,"""","""","""","""",""""
13,1,"""",,,,,image-keyboard-response,5,56736,0.0-3.0-2.0-0.0,null,img/fixation.png,null,fixation,"""",,2021-10-24 23:06:07,50.230.95.18,"Mozilla/5.0 (Windows NT 10.0; Win64; x64) AppleWebKit/537.36 (KHTML, like Gecko) Chrome/94.0.4606.81 Safari/537.36",WebKit,Chrome,94.0.4606.81,Windows,10.0,53f68ceece7833e31002fdb274153e4f,"""","""","""","""",""""
13,1,"""",,,,,image-keyboard-response,6,57528,0.0-3.0-2.0-1.0,789.3000000715256,img/heart_left.png,f,practice,f,,2021-10-24 23:06:07,50.230.95.18,"Mozilla/5.0 (Windows NT 10.0; Win64; x64) AppleWebKit/537.36 (KHTML, like Gecko) Chrome/94.0.4606.81 Safari/537.36",WebKit,Chrome,94.0.4606.81,Windows,10.0,53f68ceece7833e31002fdb274153e4f,"""","""",1,"""",""""
13,1,"""",,,,,html-keyboard-response,7,58538,0.0-3.0-2.0-2.0,null,CORRECT!,null,"""","""",,2021-10-24 23:06:07,50.230.95.18,"Mozilla/5.0 (Windows NT 10.0; Win64; x64) AppleWebKit/537.36 (KHTML, like Gecko) Chrome/94.0.4606.81 Safari/537.36",WebKit,Chrome,94.0.4606.81,Windows,10.0,53f68ceece7833e31002fdb274153e4f,"""","""","""",feedback,""""
13,1,"""",,,,,image-keyboard-response,8,60304,0.0-3.0-2.0-0.1,null,img/fixation.png,null,fixation,"""",,2021-10-24 23:06:07,50.230.95.18,"Mozilla/5.0 (Windows NT 10.0; Win64; x64) AppleWebKit/537.36 (KHTML, like Gecko) Chrome/94.0.4606.81 Safari/537.36",WebKit,Chrome,94.0.4606.81,Windows,10.0,53f68ceece7833e31002fdb274153e4f,"""","""","""","""",""""
13,1,"""",,,,,image-keyboard-response,9,61622,0.0-3.0-2.0-1.1,1315.1000000238419,img/flower_right.png,f,practice,f,,2021-10-24 23:06:07,50.230.95.18,"Mozilla/5.0 (Windows NT 10.0; Win64; x64) AppleWebKit/537.36 (KHTML, like Gecko) Chrome/94.0.4606.81 Safari/537.36",WebKit,Chrome,94.0.4606.81,Windows,10.0,53f68ceece7833e31002fdb274153e4f,"""","""",1,"""",""""
13,1,"""",,,,,html-keyboard-response,10,62630,0.0-3.0-2.0-2.1,null,CORRECT!,null,"""","""",,2021-10-24 23:06:07,50.230.95.18,"Mozilla/5.0 (Windows NT 10.0; Win64; x64) AppleWebKit/537.36 (KHTML, like Gecko) Chrome/94.0.4606.81 Safari/537.36",WebKit,Chrome,94.0.4606.81,Windows,10.0,53f68ceece7833e31002fdb274153e4f,"""","""","""",feedback,""""
13,1,"""",,,,,image-keyboard-response,11,63390,0.0-3.0-2.0-0.2,null,img/fixation.png,null,fixation,"""",,2021-10-24 23:06:07,50.230.95.18,"Mozilla/5.0 (Windows NT 10.0; Win64; x64) AppleWebKit/537.36 (KHTML, like Gecko) Chrome/94.0.4606.81 Safari/537.36",WebKit,Chrome,94.0.4606.81,Windows,10.0,53f68ceece7833e31002fdb274153e4f,"""","""","""","""",""""
13,1,"""",,,,,image-keyboard-response,12,63865,0.0-3.0-2.0-1.2,473.10000002384186,img/flower_right.png,f,practice,f,,2021-10-24 23:06:07,50.230.95.18,"Mozilla/5.0 (Windows NT 10.0; Win64; x64) AppleWebKit/537.36 (KHTML, like Gecko) Chrome/94.0.4606.81 Safari/537.36",WebKit,Chrome,94.0.4606.81,Windows,10.0,53f68ceece7833e31002fdb274153e4f,"""","""",1,"""",""""
13,1,"""",,,,,html-keyboard-response,13,64871,0.0-3.0-2.0-2.2,null,CORRECT!,null,"""","""",,2021-10-24 23:06:07,50.230.95.18,"Mozilla/5.0 (Windows NT 10.0; Win64; x64) AppleWebKit/537.36 (KHTML, like Gecko) Chrome/94.0.4606.81 Safari/537.36",WebKit,Chrome,94.0.4606.81,Windows,10.0,53f68ceece7833e31002fdb274153e4f,"""","""","""",feedback,""""
13,1,"""",,,,,image-keyboard-response,14,66624,0.0-3.0-2.0-0.3,null,img/fixation.png,null,fixation,"""",,2021-10-24 23:06:07,50.230.95.18,"Mozilla/5.0 (Windows NT 10.0; Win64; x64) AppleWebKit/537.36 (KHTML, like Gecko) Chrome/94.0.4606.81 Safari/537.36",WebKit,Chrome,94.0.4606.81,Windows,10.0,53f68ceece7833e31002fdb274153e4f,"""","""","""","""",""""
13,1,"""",,,,,image-keyboard-response,15,68263,0.0-3.0-2.0-1.3,1635.2999999523163,img/flower_left.png,j,practice,j,,2021-10-24 23:06:07,50.230.95.18,"Mozilla/5.0 (Windows NT 10.0; Win64; x64) AppleWebKit/537.36 (KHTML, like Gecko) Chrome/94.0.4606.81 Safari/537.36",WebKit,Chrome,94.0.4606.81,Windows,10.0,53f68ceece7833e31002fdb274153e4f,"""","""",1,"""",""""
13,1,"""",,,,,html-keyboard-response,16,69270,0.0-3.0-2.0-2.3,null,CORRECT!,null,"""","""",,2021-10-24 23:06:07,50.230.95.18,"Mozilla/5.0 (Windows NT 10.0; Win64; x64) AppleWebKit/537.36 (KHTML, like Gecko) Chrome/94.0.4606.81 Safari/537.36",WebKit,Chrome,94.0.4606.81,Windows,10.0,53f68ceece7833e31002fdb274153e4f,"""","""","""",feedback,""""
13,1,"""",,,,,image-keyboard-response,17,69525,0.0-3.0-2.0-0.4,null,img/fixation.png,null,fixation,"""",,2021-10-24 23:06:07,50.230.95.18,"Mozilla/5.0 (Windows NT 10.0; Win64; x64) AppleWebKit/537.36 (KHTML, like Gecko) Chrome/94.0.4606.81 Safari/537.36",WebKit,Chrome,94.0.4606.81,Windows,10.0,53f68ceece7833e31002fdb274153e4f,"""","""","""","""",""""
13,1,"""",,,,,image-keyboard-response,18,70554,0.0-3.0-2.0-1.4,1027.5999999046326,img/heart_right.png,j,practice,j,,2021-10-24 23:06:07,50.230.95.18,"Mozilla/5.0 (Windows NT 10.0; Win64; x64) AppleWebKit/537.36 (KHTML, like Gecko) Chrome/94.0.4606.81 Safari/537.36",WebKit,Chrome,94.0.4606.81,Windows,10.0,53f68ceece7833e31002fdb274153e4f,"""","""",1,"""",""""
13,1,"""",,,,,html-keyboard-response,19,71568,0.0-3.0-2.0-2.4,null,CORRECT!,null,"""","""",,2021-10-24 23:06:07,50.230.95.18,"Mozilla/5.0 (Windows NT 10.0; Win64; x64) AppleWebKit/537.36 (KHTML, like Gecko) Chrome/94.0.4606.81 Safari/537.36",WebKit,Chrome,94.0.4606.81,Windows,10.0,53f68ceece7833e31002fdb274153e4f,"""","""","""",feedback,""""
13,1,"""",,,,,image-keyboard-response,20,73320,0.0-3.0-2.0-0.5,null,img/fixation.png,null,fixation,"""",,2021-10-24 23:06:07,50.230.95.18,"Mozilla/5.0 (Windows NT 10.0; Win64; x64) AppleWebKit/537.36 (KHTML, like Gecko) Chrome/94.0.4606.81 Safari/537.36",WebKit,Chrome,94.0.4606.81,Windows,10.0,53f68ceece7833e31002fdb274153e4f,"""","""","""","""",""""
13,1,"""",,,,,image-keyboard-response,21,74105,0.0-3.0-2.0-1.5,781.7999999523163,img/heart_left.png,f,practice,f,,2021-10-24 23:06:07,50.230.95.18,"Mozilla/5.0 (Windows NT 10.0; Win64; x64) AppleWebKit/537.36 (KHTML, like Gecko) Chrome/94.0.4606.81 Safari/537.36",WebKit,Chrome,94.0.4606.81,Windows,10.0,53f68ceece7833e31002fdb274153e4f,"""","""",1,"""",""""
13,1,"""",,,,,html-keyboard-response,22,75110,0.0-3.0-2.0-2.5,null,CORRECT!,null,"""","""",,2021-10-24 23:06:07,50.230.95.18,"Mozilla/5.0 (Windows NT 10.0; Win64; x64) AppleWebKit/537.36 (KHTML, like Gecko) Chrome/94.0.4606.81 Safari/537.36",WebKit,Chrome,94.0.4606.81,Windows,10.0,53f68ceece7833e31002fdb274153e4f,"""","""","""",feedback,""""
13,1,"""",,,,,image-keyboard-response,23,75374,0.0-3.0-2.0-0.6,null,img/fixation.png,null,fixation,"""",,2021-10-24 23:06:07,50.230.95.18,"Mozilla/5.0 (Windows NT 10.0; Win64; x64) AppleWebKit/537.36 (KHTML, like Gecko) Chrome/94.0.4606.81 Safari/537.36",WebKit,Chrome,94.0.4606.81,Windows,10.0,53f68ceece7833e31002fdb274153e4f,"""","""","""","""",""""
13,1,"""",,,,,image-keyboard-response,24,75791,0.0-3.0-2.0-1.6,415.10000002384186,img/heart_left.png,f,practice,f,,2021-10-24 23:06:07,50.230.95.18,"Mozilla/5.0 (Windows NT 10.0; Win64; x64) AppleWebKit/537.36 (KHTML, like Gecko) Chrome/94.0.4606.81 Safari/537.36",WebKit,Chrome,94.0.4606.81,Windows,10.0,53f68ceece7833e31002fdb274153e4f,"""","""",1,"""",""""
13,1,"""",,,,,html-keyboard-response,25,76808,0.0-3.0-2.0-2.6,null,CORRECT!,null,"""","""",,2021-10-24 23:06:07,50.230.95.18,"Mozilla/5.0 (Windows NT 10.0; Win64; x64) AppleWebKit/537.36 (KHTML, like Gecko) Chrome/94.0.4606.81 Safari/537.36",WebKit,Chrome,94.0.4606.81,Windows,10.0,53f68ceece7833e31002fdb274153e4f,"""","""","""",feedback,""""
13,1,"""",,,,,image-keyboard-response,26,78818,0.0-3.0-2.0-0.7,null,img/fixation.png,null,fixation,"""",,2021-10-24 23:06:07,50.230.95.18,"Mozilla/5.0 (Windows NT 10.0; Win64; x64) AppleWebKit/537.36 (KHTML, like Gecko) Chrome/94.0.4606.81 Safari/537.36",WebKit,Chrome,94.0.4606.81,Windows,10.0,53f68ceece7833e31002fdb274153e4f,"""","""","""","""",""""
13,1,"""",,,,,image-keyboard-response,27,79658,0.0-3.0-2.0-1.7,827.1000000238419,img/flower_left.png,j,practice,j,,2021-10-24 23:06:07,50.230.95.18,"Mozilla/5.0 (Windows NT 10.0; Win64; x64) AppleWebKit/537.36 (KHTML, like Gecko) Chrome/94.0.4606.81 Safari/537.36",WebKit,Chrome,94.0.4606.81,Windows,10.0,53f68ceece7833e31002fdb274153e4f,"""","""",1,"""",""""
13,1,"""",,,,,html-keyboard-response,28,80663,0.0-3.0-2.0-2.7,null,CORRECT!,null,"""","""",,2021-10-24 23:06:07,50.230.95.18,"Mozilla/5.0 (Windows NT 10.0; Win64; x64) AppleWebKit/537.36 (KHTML, like Gecko) Chrome/94.0.4606.81 Safari/537.36",WebKit,Chrome,94.0.4606.81,Windows,10.0,53f68ceece7833e31002fdb274153e4f,"""","""","""",feedback,""""
13,1,"""",,,,,image-keyboard-response,29,81670,0.0-3.0-2.0-0.8,null,img/fixation.png,null,fixation,"""",,2021-10-24 23:06:07,50.230.95.18,"Mozilla/5.0 (Windows NT 10.0; Win64; x64) AppleWebKit/537.36 (KHTML, like Gecko) Chrome/94.0.4606.81 Safari/537.36",WebKit,Chrome,94.0.4606.81,Windows,10.0,53f68ceece7833e31002fdb274153e4f,"""","""","""","""",""""
13,1,"""",,,,,image-keyboard-response,30,82135,0.0-3.0-2.0-1.8,463.09999990463257,img/flower_left.png,j,practice,j,,2021-10-24 23:06:07,50.230.95.18,"Mozilla/5.0 (Windows NT 10.0; Win64; x64) AppleWebKit/537.36 (KHTML, like Gecko) Chrome/94.0.4606.81 Safari/537.36",WebKit,Chrome,94.0.4606.81,Windows,10.0,53f68ceece7833e31002fdb274153e4f,"""","""",1,"""",""""
13,1,"""",,,,,html-keyboard-response,31,83140,0.0-3.0-2.0-2.8,null,CORRECT!,null,"""","""",,2021-10-24 23:06:07,50.230.95.18,"Mozilla/5.0 (Windows NT 10.0; Win64; x64) AppleWebKit/537.36 (KHTML, like Gecko) Chrome/94.0.4606.81 Safari/537.36",WebKit,Chrome,94.0.4606.81,Windows,10.0,53f68ceece7833e31002fdb274153e4f,"""","""","""",feedback,""""
13,1,"""",,,,,image-keyboard-response,32,85151,0.0-3.0-2.0-0.9,null,img/fixation.png,null,fixation,"""",,2021-10-24 23:06:07,50.230.95.18,"Mozilla/5.0 (Windows NT 10.0; Win64; x64) AppleWebKit/537.36 (KHTML, like Gecko) Chrome/94.0.4606.81 Safari/537.36",WebKit,Chrome,94.0.4606.81,Windows,10.0,53f68ceece7833e31002fdb274153e4f,"""","""","""","""",""""
13,1,"""",,,,,image-keyboard-response,33,85824,0.0-3.0-2.0-1.9,670.1999999284744,img/heart_right.png,j,practice,j,,2021-10-24 23:06:07,50.230.95.18,"Mozilla/5.0 (Windows NT 10.0; Win64; x64) AppleWebKit/537.36 (KHTML, like Gecko) Chrome/94.0.4606.81 Safari/537.36",WebKit,Chrome,94.0.4606.81,Windows,10.0,53f68ceece7833e31002fdb274153e4f,"""","""",1,"""",""""
13,1,"""",,,,,html-keyboard-response,34,86833,0.0-3.0-2.0-2.9,null,CORRECT!,null,"""","""",,2021-10-24 23:06:07,50.230.95.18,"Mozilla/5.0 (Windows NT 10.0; Win64; x64) AppleWebKit/537.36 (KHTML, like Gecko) Chrome/94.0.4606.81 Safari/537.36",WebKit,Chrome,94.0.4606.81,Windows,10.0,53f68ceece7833e31002fdb274153e4f,"""","""","""",feedback,""""
13,1,"""",,,,,image-button-response,35,93213,0.0-4.0,6377.5,img/begin_experiment.png,0,"""","""",,2021-10-24 23:06:07,50.230.95.18,"Mozilla/5.0 (Windows NT 10.0; Win64; x64) AppleWebKit/537.36 (KHTML, like Gecko) Chrome/94.0.4606.81 Safari/537.36",WebKit,Chrome,94.0.4606.81,Windows,10.0,53f68ceece7833e31002fdb274153e4f,"""","""","""","""",""""
13,1,"""",,,,,image-keyboard-response,36,95732,0.0-5.0-0.0,null,img/fixation.png,null,fixation,"""",,2021-10-24 23:06:07,50.230.95.18,"Mozilla/5.0 (Windows NT 10.0; Win64; x64) AppleWebKit/537.36 (KHTML, like Gecko) Chrome/94.0.4606.81 Safari/537.36",WebKit,Chrome,94.0.4606.81,Windows,10.0,53f68ceece7833e31002fdb274153e4f,"""","""","""","""",1
13,1,"""",,,,,image-keyboard-response,37,96791,0.0-5.0-1.0,1057.2000000476837,img/heart_right.png,j,response,j,,2021-10-24 23:06:07,50.230.95.18,"Mozilla/5.0 (Windows NT 10.0; Win64; x64) AppleWebKit/537.36 (KHTML, like Gecko) Chrome/94.0.4606.81 Safari/537.36",WebKit,Chrome,94.0.4606.81,Windows,10.0,53f68ceece7833e31002fdb274153e4f,"""","""",1,"""",1
13,1,"""",,,,,image-keyboard-response,38,98801,0.0-5.0-0.1,null,img/fixation.png,null,fixation,"""",,2021-10-24 23:06:07,50.230.95.18,"Mozilla/5.0 (Windows NT 10.0; Win64; x64) AppleWebKit/537.36 (KHTML, like Gecko) Chrome/94.0.4606.81 Safari/537.36",WebKit,Chrome,94.0.4606.81,Windows,10.0,53f68ceece7833e31002fdb274153e4f,"""","""","""","""",1
13,1,"""",,,,,image-keyboard-response,39,99573,0.0-5.0-1.1,768.9000000953674,img/heart_left.png,f,response,f,,2021-10-24 23:06:07,50.230.95.18,"Mozilla/5.0 (Windows NT 10.0; Win64; x64) AppleWebKit/537.36 (KHTML, like Gecko) Chrome/94.0.4606.81 Safari/537.36",WebKit,Chrome,94.0.4606.81,Windows,10.0,53f68ceece7833e31002fdb274153e4f,"""","""",1,"""",1
13,1,"""",,,,,image-keyboard-response,40,100084,0.0-5.0-0.2,null,img/fixation.png,null,fixation,"""",,2021-10-24 23:06:07,50.230.95.18,"Mozilla/5.0 (Windows NT 10.0; Win64; x64) AppleWebKit/537.36 (KHTML, like Gecko) Chrome/94.0.4606.81 Safari/537.36",WebKit,Chrome,94.0.4606.81,Windows,10.0,53f68ceece7833e31002fdb274153e4f,"""","""","""","""",1
13,1,"""",,,,,image-keyboard-response,41,100873,0.0-5.0-1.2,787.7999999523163,img/flower_right.png,f,response,f,,2021-10-24 23:06:07,50.230.95.18,"Mozilla/5.0 (Windows NT 10.0; Win64; x64) AppleWebKit/537.36 (KHTML, like Gecko) Chrome/94.0.4606.81 Safari/537.36",WebKit,Chrome,94.0.4606.81,Windows,10.0,53f68ceece7833e31002fdb274153e4f,"""","""",1,"""",1
13,1,"""",,,,,html-keyboard-response,42,105897,0.0-6.0,5023.100000023842,"<p>You responded correctly on 100% of the trials.</p>
      <p>Your average response time was 871ms.</p>
      <p>Press any key to complete the experiment. Thank you!</p>", ,"""","""",,2021-10-24 23:06:07,50.230.95.18,"Mozilla/5.0 (Windows NT 10.0; Win64; x64) AppleWebKit/537.36 (KHTML, like Gecko) Chrome/94.0.4606.81 Safari/537.36",WebKit,Chrome,94.0.4606.81,Windows,10.0,53f68ceece7833e31002fdb274153e4f,"""","""","""","""",""""
13,1,"""",,,,,html-button-response,43,124065,0.0-7.0,18168.200000047684,<p>Thanks! You done gurl. Please press FINISH to save your data and get paid.</p>,0,"""","""",,2021-10-24 23:06:07,50.230.95.18,"Mozilla/5.0 (Windows NT 10.0; Win64; x64) AppleWebKit/537.36 (KHTML, like Gecko) Chrome/94.0.4606.81 Safari/537.36",WebKit,Chrome,94.0.4606.81,Windows,10.0,53f68ceece7833e31002fdb274153e4f,"""","""","""","""",""""
