run_id,condition,success,trial_type,trial_index,time_elapsed,internal_node_id,PROLIFIC_PID,STUDY_ID,SESSION_ID,subject_id,study_id,session_id,group,timeout,failed_images,failed_audio,failed_video,rt,stimulus,response,task,question_order,view_history,correct_response,accuracy,screen_id,block,recorded_at,ip,user_agent,device,browser,browser_version,platform,platform_version,source_code_version,correct
36,1,true,fullscreen,0,7130,0.0-0.0,61562615e886d11f2ea18ff1,6195a02e1d2e6fc9ed9c4f34,6195a170976d1e2ac343fd46,61562615e886d11f2ea18ff1,6195a02e1d2e6fc9ed9c4f34,6195a170976d1e2ac343fd46,EASY,"""","""","""","""","""","""","""","""","""","""","""","""","""","""",2021-11-18 00:42:29,186.35.53.166,"Mozilla/5.0 (Windows NT 10.0; Win64; x64) AppleWebKit/537.36 (KHTML, like Gecko) Chrome/94.0.4606.81 Safari/537.36 OPR/80.0.4170.91",WebKit,Opera,80.0.4170.91,Windows,10.0,16bd09c346ed3fd7ed45c3bb10d71816
36,1,true,preload,1,12341,0.0-1.0,61562615e886d11f2ea18ff1,6195a02e1d2e6fc9ed9c4f34,6195a170976d1e2ac343fd46,61562615e886d11f2ea18ff1,6195a02e1d2e6fc9ed9c4f34,6195a170976d1e2ac343fd46,EASY,false,[],[],[],"""","""","""","""","""","""","""","""","""","""",2021-11-18 00:42:29,186.35.53.166,"Mozilla/5.0 (Windows NT 10.0; Win64; x64) AppleWebKit/537.36 (KHTML, like Gecko) Chrome/94.0.4606.81 Safari/537.36 OPR/80.0.4170.91",WebKit,Opera,80.0.4170.91,Windows,10.0,16bd09c346ed3fd7ed45c3bb10d71816
36,1,"""",html-button-response,2,15796,0.0-2.0,61562615e886d11f2ea18ff1,6195a02e1d2e6fc9ed9c4f34,6195a170976d1e2ac343fd46,61562615e886d11f2ea18ff1,6195a02e1d2e6fc9ed9c4f34,6195a170976d1e2ac343fd46,EASY,"""","""","""","""",3453.400000035763,<p>Welcome! Thank you so much for participating in this study. Press START to begin.</p><br>,0,"""","""","""","""","""","""","""",2021-11-18 00:42:29,186.35.53.166,"Mozilla/5.0 (Windows NT 10.0; Win64; x64) AppleWebKit/537.36 (KHTML, like Gecko) Chrome/94.0.4606.81 Safari/537.36 OPR/80.0.4170.91",WebKit,Opera,80.0.4170.91,Windows,10.0,16bd09c346ed3fd7ed45c3bb10d71816
36,1,"""",html-button-response,3,26765,0.0-3.0,61562615e886d11f2ea18ff1,6195a02e1d2e6fc9ed9c4f34,6195a170976d1e2ac343fd46,61562615e886d11f2ea18ff1,6195a02e1d2e6fc9ed9c4f34,6195a170976d1e2ac343fd46,EASY,"""","""","""","""",10968,"<p>First, you will review a series of hypothetical scenarios each related to finances</p><br><p>Please think about each scenario carefully for approximately <strong>one minute</strong>.</p><br><p>Please reflect and process the scenario as if it were actually happening. Questions will be there to help guide your thinking.</p><p>When you are ready to begin, please press REVIEW to begin the study.",0,"""","""","""","""","""","""","""",2021-11-18 00:42:29,186.35.53.166,"Mozilla/5.0 (Windows NT 10.0; Win64; x64) AppleWebKit/537.36 (KHTML, like Gecko) Chrome/94.0.4606.81 Safari/537.36 OPR/80.0.4170.91",WebKit,Opera,80.0.4170.91,Windows,10.0,16bd09c346ed3fd7ed45c3bb10d71816
36,1,"""",image-keyboard-response,4,29534,0.0-4.0-0.0,61562615e886d11f2ea18ff1,6195a02e1d2e6fc9ed9c4f34,6195a170976d1e2ac343fd46,61562615e886d11f2ea18ff1,6195a02e1d2e6fc9ed9c4f34,6195a170976d1e2ac343fd46,EASY,"""","""","""","""",null,img/fixation.png,null,fixation,"""","""","""","""","""","""",2021-11-18 00:42:29,186.35.53.166,"Mozilla/5.0 (Windows NT 10.0; Win64; x64) AppleWebKit/537.36 (KHTML, like Gecko) Chrome/94.0.4606.81 Safari/537.36 OPR/80.0.4170.91",WebKit,Opera,80.0.4170.91,Windows,10.0,16bd09c346ed3fd7ed45c3bb10d71816
36,1,"""",image-keyboard-response,5,59536,0.0-4.0-1.0,61562615e886d11f2ea18ff1,6195a02e1d2e6fc9ed9c4f34,6195a170976d1e2ac343fd46,61562615e886d11f2ea18ff1,6195a02e1d2e6fc9ed9c4f34,6195a170976d1e2ac343fd46,EASY,"""","""","""","""",null,scarcity/easy/scenario1.png,null,"""","""","""","""","""","""","""",2021-11-18 00:42:29,186.35.53.166,"Mozilla/5.0 (Windows NT 10.0; Win64; x64) AppleWebKit/537.36 (KHTML, like Gecko) Chrome/94.0.4606.81 Safari/537.36 OPR/80.0.4170.91",WebKit,Opera,80.0.4170.91,Windows,10.0,16bd09c346ed3fd7ed45c3bb10d71816
36,1,"""",survey-multi-choice,6,76900,0.0-4.0-2.0,61562615e886d11f2ea18ff1,6195a02e1d2e6fc9ed9c4f34,6195a170976d1e2ac343fd46,61562615e886d11f2ea18ff1,6195a02e1d2e6fc9ed9c4f34,6195a170976d1e2ac343fd46,EASY,"""","""","""","""",17360.100000023842,"""","{""Q0"":""Yes"",""Q1"":""No""}","""","[0,1]","""","""","""","""","""",2021-11-18 00:42:29,186.35.53.166,"Mozilla/5.0 (Windows NT 10.0; Win64; x64) AppleWebKit/537.36 (KHTML, like Gecko) Chrome/94.0.4606.81 Safari/537.36 OPR/80.0.4170.91",WebKit,Opera,80.0.4170.91,Windows,10.0,16bd09c346ed3fd7ed45c3bb10d71816
36,1,"""",image-keyboard-response,7,78903,0.0-4.0-0.1,61562615e886d11f2ea18ff1,6195a02e1d2e6fc9ed9c4f34,6195a170976d1e2ac343fd46,61562615e886d11f2ea18ff1,6195a02e1d2e6fc9ed9c4f34,6195a170976d1e2ac343fd46,EASY,"""","""","""","""",null,img/fixation.png,null,fixation,"""","""","""","""","""","""",2021-11-18 00:42:29,186.35.53.166,"Mozilla/5.0 (Windows NT 10.0; Win64; x64) AppleWebKit/537.36 (KHTML, like Gecko) Chrome/94.0.4606.81 Safari/537.36 OPR/80.0.4170.91",WebKit,Opera,80.0.4170.91,Windows,10.0,16bd09c346ed3fd7ed45c3bb10d71816
36,1,"""",image-keyboard-response,8,108906,0.0-4.0-1.1,61562615e886d11f2ea18ff1,6195a02e1d2e6fc9ed9c4f34,6195a170976d1e2ac343fd46,61562615e886d11f2ea18ff1,6195a02e1d2e6fc9ed9c4f34,6195a170976d1e2ac343fd46,EASY,"""","""","""","""",null,scarcity/easy/scenario4.png,null,"""","""","""","""","""","""","""",2021-11-18 00:42:29,186.35.53.166,"Mozilla/5.0 (Windows NT 10.0; Win64; x64) AppleWebKit/537.36 (KHTML, like Gecko) Chrome/94.0.4606.81 Safari/537.36 OPR/80.0.4170.91",WebKit,Opera,80.0.4170.91,Windows,10.0,16bd09c346ed3fd7ed45c3bb10d71816
36,1,"""",survey-multi-choice,9,115186,0.0-4.0-2.1,61562615e886d11f2ea18ff1,6195a02e1d2e6fc9ed9c4f34,6195a170976d1e2ac343fd46,61562615e886d11f2ea18ff1,6195a02e1d2e6fc9ed9c4f34,6195a170976d1e2ac343fd46,EASY,"""","""","""","""",6278.600000023842,"""","{""Q0"":""Yes"",""Q1"":""Yes""}","""","[0,1]","""","""","""","""","""",2021-11-18 00:42:29,186.35.53.166,"Mozilla/5.0 (Windows NT 10.0; Win64; x64) AppleWebKit/537.36 (KHTML, like Gecko) Chrome/94.0.4606.81 Safari/537.36 OPR/80.0.4170.91",WebKit,Opera,80.0.4170.91,Windows,10.0,16bd09c346ed3fd7ed45c3bb10d71816
36,1,"""",image-keyboard-response,10,117189,0.0-4.0-0.2,61562615e886d11f2ea18ff1,6195a02e1d2e6fc9ed9c4f34,6195a170976d1e2ac343fd46,61562615e886d11f2ea18ff1,6195a02e1d2e6fc9ed9c4f34,6195a170976d1e2ac343fd46,EASY,"""","""","""","""",null,img/fixation.png,null,fixation,"""","""","""","""","""","""",2021-11-18 00:42:29,186.35.53.166,"Mozilla/5.0 (Windows NT 10.0; Win64; x64) AppleWebKit/537.36 (KHTML, like Gecko) Chrome/94.0.4606.81 Safari/537.36 OPR/80.0.4170.91",WebKit,Opera,80.0.4170.91,Windows,10.0,16bd09c346ed3fd7ed45c3bb10d71816
36,1,"""",image-keyboard-response,11,147192,0.0-4.0-1.2,61562615e886d11f2ea18ff1,6195a02e1d2e6fc9ed9c4f34,6195a170976d1e2ac343fd46,61562615e886d11f2ea18ff1,6195a02e1d2e6fc9ed9c4f34,6195a170976d1e2ac343fd46,EASY,"""","""","""","""",null,scarcity/easy/scenario3.png,null,"""","""","""","""","""","""","""",2021-11-18 00:42:29,186.35.53.166,"Mozilla/5.0 (Windows NT 10.0; Win64; x64) AppleWebKit/537.36 (KHTML, like Gecko) Chrome/94.0.4606.81 Safari/537.36 OPR/80.0.4170.91",WebKit,Opera,80.0.4170.91,Windows,10.0,16bd09c346ed3fd7ed45c3bb10d71816
36,1,"""",survey-multi-choice,12,154151,0.0-4.0-2.2,61562615e886d11f2ea18ff1,6195a02e1d2e6fc9ed9c4f34,6195a170976d1e2ac343fd46,61562615e886d11f2ea18ff1,6195a02e1d2e6fc9ed9c4f34,6195a170976d1e2ac343fd46,EASY,"""","""","""","""",6957,"""","{""Q0"":""Yes"",""Q1"":""No""}","""","[0,1]","""","""","""","""","""",2021-11-18 00:42:29,186.35.53.166,"Mozilla/5.0 (Windows NT 10.0; Win64; x64) AppleWebKit/537.36 (KHTML, like Gecko) Chrome/94.0.4606.81 Safari/537.36 OPR/80.0.4170.91",WebKit,Opera,80.0.4170.91,Windows,10.0,16bd09c346ed3fd7ed45c3bb10d71816
36,1,"""",image-keyboard-response,13,155902,0.0-4.0-0.3,61562615e886d11f2ea18ff1,6195a02e1d2e6fc9ed9c4f34,6195a170976d1e2ac343fd46,61562615e886d11f2ea18ff1,6195a02e1d2e6fc9ed9c4f34,6195a170976d1e2ac343fd46,EASY,"""","""","""","""",null,img/fixation.png,null,fixation,"""","""","""","""","""","""",2021-11-18 00:42:29,186.35.53.166,"Mozilla/5.0 (Windows NT 10.0; Win64; x64) AppleWebKit/537.36 (KHTML, like Gecko) Chrome/94.0.4606.81 Safari/537.36 OPR/80.0.4170.91",WebKit,Opera,80.0.4170.91,Windows,10.0,16bd09c346ed3fd7ed45c3bb10d71816
36,1,"""",image-keyboard-response,14,185904,0.0-4.0-1.3,61562615e886d11f2ea18ff1,6195a02e1d2e6fc9ed9c4f34,6195a170976d1e2ac343fd46,61562615e886d11f2ea18ff1,6195a02e1d2e6fc9ed9c4f34,6195a170976d1e2ac343fd46,EASY,"""","""","""","""",null,scarcity/easy/scenario2.png,null,"""","""","""","""","""","""","""",2021-11-18 00:42:29,186.35.53.166,"Mozilla/5.0 (Windows NT 10.0; Win64; x64) AppleWebKit/537.36 (KHTML, like Gecko) Chrome/94.0.4606.81 Safari/537.36 OPR/80.0.4170.91",WebKit,Opera,80.0.4170.91,Windows,10.0,16bd09c346ed3fd7ed45c3bb10d71816
36,1,"""",survey-multi-choice,15,190107,0.0-4.0-2.3,61562615e886d11f2ea18ff1,6195a02e1d2e6fc9ed9c4f34,6195a170976d1e2ac343fd46,61562615e886d11f2ea18ff1,6195a02e1d2e6fc9ed9c4f34,6195a170976d1e2ac343fd46,EASY,"""","""","""","""",4201,"""","{""Q0"":""Yes"",""Q1"":""No""}","""","[0,1]","""","""","""","""","""",2021-11-18 00:42:29,186.35.53.166,"Mozilla/5.0 (Windows NT 10.0; Win64; x64) AppleWebKit/537.36 (KHTML, like Gecko) Chrome/94.0.4606.81 Safari/537.36 OPR/80.0.4170.91",WebKit,Opera,80.0.4170.91,Windows,10.0,16bd09c346ed3fd7ed45c3bb10d71816
36,1,"""",html-button-response,16,196860,0.0-5.0,61562615e886d11f2ea18ff1,6195a02e1d2e6fc9ed9c4f34,6195a170976d1e2ac343fd46,61562615e886d11f2ea18ff1,6195a02e1d2e6fc9ed9c4f34,6195a170976d1e2ac343fd46,EASY,"""","""","""","""",6751.300000011921,"<p>You have finished reviewing each scenario!</p><p>We will now begin the cognitive experiment.<p><p>When you are ready to begin the cognitive game, please press START.</p>",0,"""","""","""","""","""","""","""",2021-11-18 00:42:29,186.35.53.166,"Mozilla/5.0 (Windows NT 10.0; Win64; x64) AppleWebKit/537.36 (KHTML, like Gecko) Chrome/94.0.4606.81 Safari/537.36 OPR/80.0.4170.91",WebKit,Opera,80.0.4170.91,Windows,10.0,16bd09c346ed3fd7ed45c3bb10d71816
36,1,"""",instructions,17,258677,0.0-6.0-0.0,61562615e886d11f2ea18ff1,6195a02e1d2e6fc9ed9c4f34,6195a170976d1e2ac343fd46,61562615e886d11f2ea18ff1,6195a02e1d2e6fc9ed9c4f34,6195a170976d1e2ac343fd46,EASY,"""","""","""","""",60063.69999998808,"""","""","""","""","[{""page_index"":0,""viewing_time"":20753.799999952316},{""page_index"":1,""viewing_time"":9249.200000047684},{""page_index"":2,""viewing_time"":7849.199999988079},{""page_index"":3,""viewing_time"":1224.0999999642372},{""page_index"":4,""viewing_time"":8985.400000035763},{""page_index"":5,""viewing_time"":10145.599999964237},{""page_index"":6,""viewing_time"":1855.800000011921}]","""","""","""","""",2021-11-18 00:42:29,186.35.53.166,"Mozilla/5.0 (Windows NT 10.0; Win64; x64) AppleWebKit/537.36 (KHTML, like Gecko) Chrome/94.0.4606.81 Safari/537.36 OPR/80.0.4170.91",WebKit,Opera,80.0.4170.91,Windows,10.0,16bd09c346ed3fd7ed45c3bb10d71816
36,1,"""",image-button-response,18,276184,0.0-6.0-1.0,61562615e886d11f2ea18ff1,6195a02e1d2e6fc9ed9c4f34,6195a170976d1e2ac343fd46,61562615e886d11f2ea18ff1,6195a02e1d2e6fc9ed9c4f34,6195a170976d1e2ac343fd46,EASY,"""","""","""","""",17505,begin_practice.png,0,"""","""","""","""","""","""","""",2021-11-18 00:42:29,186.35.53.166,"Mozilla/5.0 (Windows NT 10.0; Win64; x64) AppleWebKit/537.36 (KHTML, like Gecko) Chrome/94.0.4606.81 Safari/537.36 OPR/80.0.4170.91",WebKit,Opera,80.0.4170.91,Windows,10.0,16bd09c346ed3fd7ed45c3bb10d71816
36,1,"""",image-keyboard-response,19,279688,0.0-6.0-2.0-0.0,61562615e886d11f2ea18ff1,6195a02e1d2e6fc9ed9c4f34,6195a170976d1e2ac343fd46,61562615e886d11f2ea18ff1,6195a02e1d2e6fc9ed9c4f34,6195a170976d1e2ac343fd46,EASY,"""","""","""","""",null,img/fixation.png,null,fixation,"""","""","""","""","""","""",2021-11-18 00:42:29,186.35.53.166,"Mozilla/5.0 (Windows NT 10.0; Win64; x64) AppleWebKit/537.36 (KHTML, like Gecko) Chrome/94.0.4606.81 Safari/537.36 OPR/80.0.4170.91",WebKit,Opera,80.0.4170.91,Windows,10.0,16bd09c346ed3fd7ed45c3bb10d71816
36,1,"""",image-keyboard-response,20,280480,0.0-6.0-2.0-1.0,61562615e886d11f2ea18ff1,6195a02e1d2e6fc9ed9c4f34,6195a170976d1e2ac343fd46,61562615e886d11f2ea18ff1,6195a02e1d2e6fc9ed9c4f34,6195a170976d1e2ac343fd46,EASY,"""","""","""","""",791,img/heart_left.png,f,practice,"""","""",f,1,"""","""",2021-11-18 00:42:29,186.35.53.166,"Mozilla/5.0 (Windows NT 10.0; Win64; x64) AppleWebKit/537.36 (KHTML, like Gecko) Chrome/94.0.4606.81 Safari/537.36 OPR/80.0.4170.91",WebKit,Opera,80.0.4170.91,Windows,10.0,16bd09c346ed3fd7ed45c3bb10d71816
36,1,"""",html-keyboard-response,21,281486,0.0-6.0-2.0-2.0,61562615e886d11f2ea18ff1,6195a02e1d2e6fc9ed9c4f34,6195a170976d1e2ac343fd46,61562615e886d11f2ea18ff1,6195a02e1d2e6fc9ed9c4f34,6195a170976d1e2ac343fd46,EASY,"""","""","""","""",null,CORRECT!,null,"""","""","""","""","""",feedback,"""",2021-11-18 00:42:29,186.35.53.166,"Mozilla/5.0 (Windows NT 10.0; Win64; x64) AppleWebKit/537.36 (KHTML, like Gecko) Chrome/94.0.4606.81 Safari/537.36 OPR/80.0.4170.91",WebKit,Opera,80.0.4170.91,Windows,10.0,16bd09c346ed3fd7ed45c3bb10d71816
36,1,"""",image-keyboard-response,22,282988,0.0-6.0-2.0-0.1,61562615e886d11f2ea18ff1,6195a02e1d2e6fc9ed9c4f34,6195a170976d1e2ac343fd46,61562615e886d11f2ea18ff1,6195a02e1d2e6fc9ed9c4f34,6195a170976d1e2ac343fd46,EASY,"""","""","""","""",null,img/fixation.png,null,fixation,"""","""","""","""","""","""",2021-11-18 00:42:29,186.35.53.166,"Mozilla/5.0 (Windows NT 10.0; Win64; x64) AppleWebKit/537.36 (KHTML, like Gecko) Chrome/94.0.4606.81 Safari/537.36 OPR/80.0.4170.91",WebKit,Opera,80.0.4170.91,Windows,10.0,16bd09c346ed3fd7ed45c3bb10d71816
36,1,"""",image-keyboard-response,23,283473,0.0-6.0-2.0-1.1,61562615e886d11f2ea18ff1,6195a02e1d2e6fc9ed9c4f34,6195a170976d1e2ac343fd46,61562615e886d11f2ea18ff1,6195a02e1d2e6fc9ed9c4f34,6195a170976d1e2ac343fd46,EASY,"""","""","""","""",482.4000000357628,img/heart_right.png,j,practice,"""","""",j,1,"""","""",2021-11-18 00:42:29,186.35.53.166,"Mozilla/5.0 (Windows NT 10.0; Win64; x64) AppleWebKit/537.36 (KHTML, like Gecko) Chrome/94.0.4606.81 Safari/537.36 OPR/80.0.4170.91",WebKit,Opera,80.0.4170.91,Windows,10.0,16bd09c346ed3fd7ed45c3bb10d71816
36,1,"""",html-keyboard-response,24,284475,0.0-6.0-2.0-2.1,61562615e886d11f2ea18ff1,6195a02e1d2e6fc9ed9c4f34,6195a170976d1e2ac343fd46,61562615e886d11f2ea18ff1,6195a02e1d2e6fc9ed9c4f34,6195a170976d1e2ac343fd46,EASY,"""","""","""","""",null,CORRECT!,null,"""","""","""","""","""",feedback,"""",2021-11-18 00:42:29,186.35.53.166,"Mozilla/5.0 (Windows NT 10.0; Win64; x64) AppleWebKit/537.36 (KHTML, like Gecko) Chrome/94.0.4606.81 Safari/537.36 OPR/80.0.4170.91",WebKit,Opera,80.0.4170.91,Windows,10.0,16bd09c346ed3fd7ed45c3bb10d71816
36,1,"""",image-keyboard-response,25,284728,0.0-6.0-2.0-0.2,61562615e886d11f2ea18ff1,6195a02e1d2e6fc9ed9c4f34,6195a170976d1e2ac343fd46,61562615e886d11f2ea18ff1,6195a02e1d2e6fc9ed9c4f34,6195a170976d1e2ac343fd46,EASY,"""","""","""","""",null,img/fixation.png,null,fixation,"""","""","""","""","""","""",2021-11-18 00:42:29,186.35.53.166,"Mozilla/5.0 (Windows NT 10.0; Win64; x64) AppleWebKit/537.36 (KHTML, like Gecko) Chrome/94.0.4606.81 Safari/537.36 OPR/80.0.4170.91",WebKit,Opera,80.0.4170.91,Windows,10.0,16bd09c346ed3fd7ed45c3bb10d71816
36,1,"""",image-keyboard-response,26,285313,0.0-6.0-2.0-1.2,61562615e886d11f2ea18ff1,6195a02e1d2e6fc9ed9c4f34,6195a170976d1e2ac343fd46,61562615e886d11f2ea18ff1,6195a02e1d2e6fc9ed9c4f34,6195a170976d1e2ac343fd46,EASY,"""","""","""","""",584,img/flower_right.png,f,practice,"""","""",f,1,"""","""",2021-11-18 00:42:29,186.35.53.166,"Mozilla/5.0 (Windows NT 10.0; Win64; x64) AppleWebKit/537.36 (KHTML, like Gecko) Chrome/94.0.4606.81 Safari/537.36 OPR/80.0.4170.91",WebKit,Opera,80.0.4170.91,Windows,10.0,16bd09c346ed3fd7ed45c3bb10d71816
36,1,"""",html-keyboard-response,27,286315,0.0-6.0-2.0-2.2,61562615e886d11f2ea18ff1,6195a02e1d2e6fc9ed9c4f34,6195a170976d1e2ac343fd46,61562615e886d11f2ea18ff1,6195a02e1d2e6fc9ed9c4f34,6195a170976d1e2ac343fd46,EASY,"""","""","""","""",null,CORRECT!,null,"""","""","""","""","""",feedback,"""",2021-11-18 00:42:29,186.35.53.166,"Mozilla/5.0 (Windows NT 10.0; Win64; x64) AppleWebKit/537.36 (KHTML, like Gecko) Chrome/94.0.4606.81 Safari/537.36 OPR/80.0.4170.91",WebKit,Opera,80.0.4170.91,Windows,10.0,16bd09c346ed3fd7ed45c3bb10d71816
36,1,"""",image-keyboard-response,28,287317,0.0-6.0-2.0-0.3,61562615e886d11f2ea18ff1,6195a02e1d2e6fc9ed9c4f34,6195a170976d1e2ac343fd46,61562615e886d11f2ea18ff1,6195a02e1d2e6fc9ed9c4f34,6195a170976d1e2ac343fd46,EASY,"""","""","""","""",null,img/fixation.png,null,fixation,"""","""","""","""","""","""",2021-11-18 00:42:29,186.35.53.166,"Mozilla/5.0 (Windows NT 10.0; Win64; x64) AppleWebKit/537.36 (KHTML, like Gecko) Chrome/94.0.4606.81 Safari/537.36 OPR/80.0.4170.91",WebKit,Opera,80.0.4170.91,Windows,10.0,16bd09c346ed3fd7ed45c3bb10d71816
36,1,"""",image-keyboard-response,29,288226,0.0-6.0-2.0-1.3,61562615e886d11f2ea18ff1,6195a02e1d2e6fc9ed9c4f34,6195a170976d1e2ac343fd46,61562615e886d11f2ea18ff1,6195a02e1d2e6fc9ed9c4f34,6195a170976d1e2ac343fd46,EASY,"""","""","""","""",907.6000000238419,img/flower_left.png,j,practice,"""","""",j,1,"""","""",2021-11-18 00:42:29,186.35.53.166,"Mozilla/5.0 (Windows NT 10.0; Win64; x64) AppleWebKit/537.36 (KHTML, like Gecko) Chrome/94.0.4606.81 Safari/537.36 OPR/80.0.4170.91",WebKit,Opera,80.0.4170.91,Windows,10.0,16bd09c346ed3fd7ed45c3bb10d71816
36,1,"""",html-keyboard-response,30,289227,0.0-6.0-2.0-2.3,61562615e886d11f2ea18ff1,6195a02e1d2e6fc9ed9c4f34,6195a170976d1e2ac343fd46,61562615e886d11f2ea18ff1,6195a02e1d2e6fc9ed9c4f34,6195a170976d1e2ac343fd46,EASY,"""","""","""","""",null,CORRECT!,null,"""","""","""","""","""",feedback,"""",2021-11-18 00:42:29,186.35.53.166,"Mozilla/5.0 (Windows NT 10.0; Win64; x64) AppleWebKit/537.36 (KHTML, like Gecko) Chrome/94.0.4606.81 Safari/537.36 OPR/80.0.4170.91",WebKit,Opera,80.0.4170.91,Windows,10.0,16bd09c346ed3fd7ed45c3bb10d71816
36,1,"""",image-keyboard-response,31,290481,0.0-6.0-2.0-0.4,61562615e886d11f2ea18ff1,6195a02e1d2e6fc9ed9c4f34,6195a170976d1e2ac343fd46,61562615e886d11f2ea18ff1,6195a02e1d2e6fc9ed9c4f34,6195a170976d1e2ac343fd46,EASY,"""","""","""","""",null,img/fixation.png,null,fixation,"""","""","""","""","""","""",2021-11-18 00:42:29,186.35.53.166,"Mozilla/5.0 (Windows NT 10.0; Win64; x64) AppleWebKit/537.36 (KHTML, like Gecko) Chrome/94.0.4606.81 Safari/537.36 OPR/80.0.4170.91",WebKit,Opera,80.0.4170.91,Windows,10.0,16bd09c346ed3fd7ed45c3bb10d71816
36,1,"""",image-keyboard-response,32,291074,0.0-6.0-2.0-1.4,61562615e886d11f2ea18ff1,6195a02e1d2e6fc9ed9c4f34,6195a170976d1e2ac343fd46,61562615e886d11f2ea18ff1,6195a02e1d2e6fc9ed9c4f34,6195a170976d1e2ac343fd46,EASY,"""","""","""","""",590.9000000357628,img/heart_left.png,f,practice,"""","""",f,1,"""","""",2021-11-18 00:42:29,186.35.53.166,"Mozilla/5.0 (Windows NT 10.0; Win64; x64) AppleWebKit/537.36 (KHTML, like Gecko) Chrome/94.0.4606.81 Safari/537.36 OPR/80.0.4170.91",WebKit,Opera,80.0.4170.91,Windows,10.0,16bd09c346ed3fd7ed45c3bb10d71816
36,1,"""",html-keyboard-response,33,292076,0.0-6.0-2.0-2.4,61562615e886d11f2ea18ff1,6195a02e1d2e6fc9ed9c4f34,6195a170976d1e2ac343fd46,61562615e886d11f2ea18ff1,6195a02e1d2e6fc9ed9c4f34,6195a170976d1e2ac343fd46,EASY,"""","""","""","""",null,CORRECT!,null,"""","""","""","""","""",feedback,"""",2021-11-18 00:42:29,186.35.53.166,"Mozilla/5.0 (Windows NT 10.0; Win64; x64) AppleWebKit/537.36 (KHTML, like Gecko) Chrome/94.0.4606.81 Safari/537.36 OPR/80.0.4170.91",WebKit,Opera,80.0.4170.91,Windows,10.0,16bd09c346ed3fd7ed45c3bb10d71816
36,1,"""",image-keyboard-response,34,293078,0.0-6.0-2.0-0.5,61562615e886d11f2ea18ff1,6195a02e1d2e6fc9ed9c4f34,6195a170976d1e2ac343fd46,61562615e886d11f2ea18ff1,6195a02e1d2e6fc9ed9c4f34,6195a170976d1e2ac343fd46,EASY,"""","""","""","""",null,img/fixation.png,null,fixation,"""","""","""","""","""","""",2021-11-18 00:42:29,186.35.53.166,"Mozilla/5.0 (Windows NT 10.0; Win64; x64) AppleWebKit/537.36 (KHTML, like Gecko) Chrome/94.0.4606.81 Safari/537.36 OPR/80.0.4170.91",WebKit,Opera,80.0.4170.91,Windows,10.0,16bd09c346ed3fd7ed45c3bb10d71816
36,1,"""",image-keyboard-response,35,293890,0.0-6.0-2.0-1.5,61562615e886d11f2ea18ff1,6195a02e1d2e6fc9ed9c4f34,6195a170976d1e2ac343fd46,61562615e886d11f2ea18ff1,6195a02e1d2e6fc9ed9c4f34,6195a170976d1e2ac343fd46,EASY,"""","""","""","""",810.3000000119209,img/flower_right.png,f,practice,"""","""",f,1,"""","""",2021-11-18 00:42:29,186.35.53.166,"Mozilla/5.0 (Windows NT 10.0; Win64; x64) AppleWebKit/537.36 (KHTML, like Gecko) Chrome/94.0.4606.81 Safari/537.36 OPR/80.0.4170.91",WebKit,Opera,80.0.4170.91,Windows,10.0,16bd09c346ed3fd7ed45c3bb10d71816
36,1,"""",html-keyboard-response,36,294891,0.0-6.0-2.0-2.5,61562615e886d11f2ea18ff1,6195a02e1d2e6fc9ed9c4f34,6195a170976d1e2ac343fd46,61562615e886d11f2ea18ff1,6195a02e1d2e6fc9ed9c4f34,6195a170976d1e2ac343fd46,EASY,"""","""","""","""",null,CORRECT!,null,"""","""","""","""","""",feedback,"""",2021-11-18 00:42:29,186.35.53.166,"Mozilla/5.0 (Windows NT 10.0; Win64; x64) AppleWebKit/537.36 (KHTML, like Gecko) Chrome/94.0.4606.81 Safari/537.36 OPR/80.0.4170.91",WebKit,Opera,80.0.4170.91,Windows,10.0,16bd09c346ed3fd7ed45c3bb10d71816
36,1,"""",image-keyboard-response,37,296646,0.0-6.0-2.0-0.6,61562615e886d11f2ea18ff1,6195a02e1d2e6fc9ed9c4f34,6195a170976d1e2ac343fd46,61562615e886d11f2ea18ff1,6195a02e1d2e6fc9ed9c4f34,6195a170976d1e2ac343fd46,EASY,"""","""","""","""",null,img/fixation.png,null,fixation,"""","""","""","""","""","""",2021-11-18 00:42:29,186.35.53.166,"Mozilla/5.0 (Windows NT 10.0; Win64; x64) AppleWebKit/537.36 (KHTML, like Gecko) Chrome/94.0.4606.81 Safari/537.36 OPR/80.0.4170.91",WebKit,Opera,80.0.4170.91,Windows,10.0,16bd09c346ed3fd7ed45c3bb10d71816
36,1,"""",image-keyboard-response,38,297299,0.0-6.0-2.0-1.6,61562615e886d11f2ea18ff1,6195a02e1d2e6fc9ed9c4f34,6195a170976d1e2ac343fd46,61562615e886d11f2ea18ff1,6195a02e1d2e6fc9ed9c4f34,6195a170976d1e2ac343fd46,EASY,"""","""","""","""",651.3000000119209,img/flower_left.png,j,practice,"""","""",j,1,"""","""",2021-11-18 00:42:29,186.35.53.166,"Mozilla/5.0 (Windows NT 10.0; Win64; x64) AppleWebKit/537.36 (KHTML, like Gecko) Chrome/94.0.4606.81 Safari/537.36 OPR/80.0.4170.91",WebKit,Opera,80.0.4170.91,Windows,10.0,16bd09c346ed3fd7ed45c3bb10d71816
36,1,"""",html-keyboard-response,39,298300,0.0-6.0-2.0-2.6,61562615e886d11f2ea18ff1,6195a02e1d2e6fc9ed9c4f34,6195a170976d1e2ac343fd46,61562615e886d11f2ea18ff1,6195a02e1d2e6fc9ed9c4f34,6195a170976d1e2ac343fd46,EASY,"""","""","""","""",null,CORRECT!,null,"""","""","""","""","""",feedback,"""",2021-11-18 00:42:29,186.35.53.166,"Mozilla/5.0 (Windows NT 10.0; Win64; x64) AppleWebKit/537.36 (KHTML, like Gecko) Chrome/94.0.4606.81 Safari/537.36 OPR/80.0.4170.91",WebKit,Opera,80.0.4170.91,Windows,10.0,16bd09c346ed3fd7ed45c3bb10d71816
36,1,"""",image-keyboard-response,40,300052,0.0-6.0-2.0-0.7,61562615e886d11f2ea18ff1,6195a02e1d2e6fc9ed9c4f34,6195a170976d1e2ac343fd46,61562615e886d11f2ea18ff1,6195a02e1d2e6fc9ed9c4f34,6195a170976d1e2ac343fd46,EASY,"""","""","""","""",null,img/fixation.png,null,fixation,"""","""","""","""","""","""",2021-11-18 00:42:29,186.35.53.166,"Mozilla/5.0 (Windows NT 10.0; Win64; x64) AppleWebKit/537.36 (KHTML, like Gecko) Chrome/94.0.4606.81 Safari/537.36 OPR/80.0.4170.91",WebKit,Opera,80.0.4170.91,Windows,10.0,16bd09c346ed3fd7ed45c3bb10d71816
36,1,"""",image-keyboard-response,41,300644,0.0-6.0-2.0-1.7,61562615e886d11f2ea18ff1,6195a02e1d2e6fc9ed9c4f34,6195a170976d1e2ac343fd46,61562615e886d11f2ea18ff1,6195a02e1d2e6fc9ed9c4f34,6195a170976d1e2ac343fd46,EASY,"""","""","""","""",591,img/heart_left.png,f,practice,"""","""",f,1,"""","""",2021-11-18 00:42:29,186.35.53.166,"Mozilla/5.0 (Windows NT 10.0; Win64; x64) AppleWebKit/537.36 (KHTML, like Gecko) Chrome/94.0.4606.81 Safari/537.36 OPR/80.0.4170.91",WebKit,Opera,80.0.4170.91,Windows,10.0,16bd09c346ed3fd7ed45c3bb10d71816
36,1,"""",html-keyboard-response,42,301646,0.0-6.0-2.0-2.7,61562615e886d11f2ea18ff1,6195a02e1d2e6fc9ed9c4f34,6195a170976d1e2ac343fd46,61562615e886d11f2ea18ff1,6195a02e1d2e6fc9ed9c4f34,6195a170976d1e2ac343fd46,EASY,"""","""","""","""",null,CORRECT!,null,"""","""","""","""","""",feedback,"""",2021-11-18 00:42:29,186.35.53.166,"Mozilla/5.0 (Windows NT 10.0; Win64; x64) AppleWebKit/537.36 (KHTML, like Gecko) Chrome/94.0.4606.81 Safari/537.36 OPR/80.0.4170.91",WebKit,Opera,80.0.4170.91,Windows,10.0,16bd09c346ed3fd7ed45c3bb10d71816
36,1,"""",image-keyboard-response,43,301898,0.0-6.0-2.0-0.8,61562615e886d11f2ea18ff1,6195a02e1d2e6fc9ed9c4f34,6195a170976d1e2ac343fd46,61562615e886d11f2ea18ff1,6195a02e1d2e6fc9ed9c4f34,6195a170976d1e2ac343fd46,EASY,"""","""","""","""",null,img/fixation.png,null,fixation,"""","""","""","""","""","""",2021-11-18 00:42:29,186.35.53.166,"Mozilla/5.0 (Windows NT 10.0; Win64; x64) AppleWebKit/537.36 (KHTML, like Gecko) Chrome/94.0.4606.81 Safari/537.36 OPR/80.0.4170.91",WebKit,Opera,80.0.4170.91,Windows,10.0,16bd09c346ed3fd7ed45c3bb10d71816
36,1,"""",image-keyboard-response,44,302387,0.0-6.0-2.0-1.8,61562615e886d11f2ea18ff1,6195a02e1d2e6fc9ed9c4f34,6195a170976d1e2ac343fd46,61562615e886d11f2ea18ff1,6195a02e1d2e6fc9ed9c4f34,6195a170976d1e2ac343fd46,EASY,"""","""","""","""",488.2999999523163,img/heart_left.png,f,practice,"""","""",f,1,"""","""",2021-11-18 00:42:29,186.35.53.166,"Mozilla/5.0 (Windows NT 10.0; Win64; x64) AppleWebKit/537.36 (KHTML, like Gecko) Chrome/94.0.4606.81 Safari/537.36 OPR/80.0.4170.91",WebKit,Opera,80.0.4170.91,Windows,10.0,16bd09c346ed3fd7ed45c3bb10d71816
36,1,"""",html-keyboard-response,45,303388,0.0-6.0-2.0-2.8,61562615e886d11f2ea18ff1,6195a02e1d2e6fc9ed9c4f34,6195a170976d1e2ac343fd46,61562615e886d11f2ea18ff1,6195a02e1d2e6fc9ed9c4f34,6195a170976d1e2ac343fd46,EASY,"""","""","""","""",null,CORRECT!,null,"""","""","""","""","""",feedback,"""",2021-11-18 00:42:29,186.35.53.166,"Mozilla/5.0 (Windows NT 10.0; Win64; x64) AppleWebKit/537.36 (KHTML, like Gecko) Chrome/94.0.4606.81 Safari/537.36 OPR/80.0.4170.91",WebKit,Opera,80.0.4170.91,Windows,10.0,16bd09c346ed3fd7ed45c3bb10d71816
36,1,"""",image-keyboard-response,46,305140,0.0-6.0-2.0-0.9,61562615e886d11f2ea18ff1,6195a02e1d2e6fc9ed9c4f34,6195a170976d1e2ac343fd46,61562615e886d11f2ea18ff1,6195a02e1d2e6fc9ed9c4f34,6195a170976d1e2ac343fd46,EASY,"""","""","""","""",null,img/fixation.png,null,fixation,"""","""","""","""","""","""",2021-11-18 00:42:29,186.35.53.166,"Mozilla/5.0 (Windows NT 10.0; Win64; x64) AppleWebKit/537.36 (KHTML, like Gecko) Chrome/94.0.4606.81 Safari/537.36 OPR/80.0.4170.91",WebKit,Opera,80.0.4170.91,Windows,10.0,16bd09c346ed3fd7ed45c3bb10d71816
36,1,"""",image-keyboard-response,47,305668,0.0-6.0-2.0-1.9,61562615e886d11f2ea18ff1,6195a02e1d2e6fc9ed9c4f34,6195a170976d1e2ac343fd46,61562615e886d11f2ea18ff1,6195a02e1d2e6fc9ed9c4f34,6195a170976d1e2ac343fd46,EASY,"""","""","""","""",526.1000000238419,img/heart_left.png,f,practice,"""","""",f,1,"""","""",2021-11-18 00:42:29,186.35.53.166,"Mozilla/5.0 (Windows NT 10.0; Win64; x64) AppleWebKit/537.36 (KHTML, like Gecko) Chrome/94.0.4606.81 Safari/537.36 OPR/80.0.4170.91",WebKit,Opera,80.0.4170.91,Windows,10.0,16bd09c346ed3fd7ed45c3bb10d71816
36,1,"""",html-keyboard-response,48,306669,0.0-6.0-2.0-2.9,61562615e886d11f2ea18ff1,6195a02e1d2e6fc9ed9c4f34,6195a170976d1e2ac343fd46,61562615e886d11f2ea18ff1,6195a02e1d2e6fc9ed9c4f34,6195a170976d1e2ac343fd46,EASY,"""","""","""","""",null,CORRECT!,null,"""","""","""","""","""",feedback,"""",2021-11-18 00:42:29,186.35.53.166,"Mozilla/5.0 (Windows NT 10.0; Win64; x64) AppleWebKit/537.36 (KHTML, like Gecko) Chrome/94.0.4606.81 Safari/537.36 OPR/80.0.4170.91",WebKit,Opera,80.0.4170.91,Windows,10.0,16bd09c346ed3fd7ed45c3bb10d71816
36,1,"""",image-button-response,49,308772,0.0-7.0,61562615e886d11f2ea18ff1,6195a02e1d2e6fc9ed9c4f34,6195a170976d1e2ac343fd46,61562615e886d11f2ea18ff1,6195a02e1d2e6fc9ed9c4f34,6195a170976d1e2ac343fd46,EASY,"""","""","""","""",2100.300000011921,img/begin_experiment.png,0,"""","""","""","""","""","""","""",2021-11-18 00:42:29,186.35.53.166,"Mozilla/5.0 (Windows NT 10.0; Win64; x64) AppleWebKit/537.36 (KHTML, like Gecko) Chrome/94.0.4606.81 Safari/537.36 OPR/80.0.4170.91",WebKit,Opera,80.0.4170.91,Windows,10.0,16bd09c346ed3fd7ed45c3bb10d71816
36,1,"""",html-button-response,50,314286,0.0-8.0,61562615e886d11f2ea18ff1,6195a02e1d2e6fc9ed9c4f34,6195a170976d1e2ac343fd46,61562615e886d11f2ea18ff1,6195a02e1d2e6fc9ed9c4f34,6195a170976d1e2ac343fd46,EASY,"""","""","""","""",3511.800000011921,Block 1,0,"""","""","""","""","""","""","""",2021-11-18 00:42:29,186.35.53.166,"Mozilla/5.0 (Windows NT 10.0; Win64; x64) AppleWebKit/537.36 (KHTML, like Gecko) Chrome/94.0.4606.81 Safari/537.36 OPR/80.0.4170.91",WebKit,Opera,80.0.4170.91,Windows,10.0,16bd09c346ed3fd7ed45c3bb10d71816
36,1,"""",image-keyboard-response,51,317288,0.0-9.0-0.0,61562615e886d11f2ea18ff1,6195a02e1d2e6fc9ed9c4f34,6195a170976d1e2ac343fd46,61562615e886d11f2ea18ff1,6195a02e1d2e6fc9ed9c4f34,6195a170976d1e2ac343fd46,EASY,"""","""","""","""",null,img/fixation.png,null,fixation,"""","""","""","""","""",1,2021-11-18 00:42:29,186.35.53.166,"Mozilla/5.0 (Windows NT 10.0; Win64; x64) AppleWebKit/537.36 (KHTML, like Gecko) Chrome/94.0.4606.81 Safari/537.36 OPR/80.0.4170.91",WebKit,Opera,80.0.4170.91,Windows,10.0,16bd09c346ed3fd7ed45c3bb10d71816
36,1,"""",image-keyboard-response,52,318149,0.0-9.0-1.0,61562615e886d11f2ea18ff1,6195a02e1d2e6fc9ed9c4f34,6195a170976d1e2ac343fd46,61562615e886d11f2ea18ff1,6195a02e1d2e6fc9ed9c4f34,6195a170976d1e2ac343fd46,EASY,"""","""","""","""",858.3000000119209,img/flower_right.png,f,response,"""","""",f,1,"""",1,2021-11-18 00:42:29,186.35.53.166,"Mozilla/5.0 (Windows NT 10.0; Win64; x64) AppleWebKit/537.36 (KHTML, like Gecko) Chrome/94.0.4606.81 Safari/537.36 OPR/80.0.4170.91",WebKit,Opera,80.0.4170.91,Windows,10.0,16bd09c346ed3fd7ed45c3bb10d71816
36,1,"""",image-keyboard-response,53,319151,0.0-9.0-0.1,61562615e886d11f2ea18ff1,6195a02e1d2e6fc9ed9c4f34,6195a170976d1e2ac343fd46,61562615e886d11f2ea18ff1,6195a02e1d2e6fc9ed9c4f34,6195a170976d1e2ac343fd46,EASY,"""","""","""","""",null,img/fixation.png,null,fixation,"""","""","""","""","""",1,2021-11-18 00:42:29,186.35.53.166,"Mozilla/5.0 (Windows NT 10.0; Win64; x64) AppleWebKit/537.36 (KHTML, like Gecko) Chrome/94.0.4606.81 Safari/537.36 OPR/80.0.4170.91",WebKit,Opera,80.0.4170.91,Windows,10.0,16bd09c346ed3fd7ed45c3bb10d71816
36,1,"""",image-keyboard-response,54,319974,0.0-9.0-1.1,61562615e886d11f2ea18ff1,6195a02e1d2e6fc9ed9c4f34,6195a170976d1e2ac343fd46,61562615e886d11f2ea18ff1,6195a02e1d2e6fc9ed9c4f34,6195a170976d1e2ac343fd46,EASY,"""","""","""","""",819.1999999880791,img/flower_left.png,j,response,"""","""",j,1,"""",1,2021-11-18 00:42:29,186.35.53.166,"Mozilla/5.0 (Windows NT 10.0; Win64; x64) AppleWebKit/537.36 (KHTML, like Gecko) Chrome/94.0.4606.81 Safari/537.36 OPR/80.0.4170.91",WebKit,Opera,80.0.4170.91,Windows,10.0,16bd09c346ed3fd7ed45c3bb10d71816
36,1,"""",image-keyboard-response,55,321975,0.0-9.0-0.2,61562615e886d11f2ea18ff1,6195a02e1d2e6fc9ed9c4f34,6195a170976d1e2ac343fd46,61562615e886d11f2ea18ff1,6195a02e1d2e6fc9ed9c4f34,6195a170976d1e2ac343fd46,EASY,"""","""","""","""",null,img/fixation.png,null,fixation,"""","""","""","""","""",1,2021-11-18 00:42:29,186.35.53.166,"Mozilla/5.0 (Windows NT 10.0; Win64; x64) AppleWebKit/537.36 (KHTML, like Gecko) Chrome/94.0.4606.81 Safari/537.36 OPR/80.0.4170.91",WebKit,Opera,80.0.4170.91,Windows,10.0,16bd09c346ed3fd7ed45c3bb10d71816
36,1,"""",image-keyboard-response,56,322470,0.0-9.0-1.2,61562615e886d11f2ea18ff1,6195a02e1d2e6fc9ed9c4f34,6195a170976d1e2ac343fd46,61562615e886d11f2ea18ff1,6195a02e1d2e6fc9ed9c4f34,6195a170976d1e2ac343fd46,EASY,"""","""","""","""",493.7000000476837,img/heart_left.png,f,response,"""","""",f,1,"""",1,2021-11-18 00:42:29,186.35.53.166,"Mozilla/5.0 (Windows NT 10.0; Win64; x64) AppleWebKit/537.36 (KHTML, like Gecko) Chrome/94.0.4606.81 Safari/537.36 OPR/80.0.4170.91",WebKit,Opera,80.0.4170.91,Windows,10.0,16bd09c346ed3fd7ed45c3bb10d71816
36,1,"""",image-keyboard-response,57,323971,0.0-9.0-0.3,61562615e886d11f2ea18ff1,6195a02e1d2e6fc9ed9c4f34,6195a170976d1e2ac343fd46,61562615e886d11f2ea18ff1,6195a02e1d2e6fc9ed9c4f34,6195a170976d1e2ac343fd46,EASY,"""","""","""","""",null,img/fixation.png,null,fixation,"""","""","""","""","""",1,2021-11-18 00:42:29,186.35.53.166,"Mozilla/5.0 (Windows NT 10.0; Win64; x64) AppleWebKit/537.36 (KHTML, like Gecko) Chrome/94.0.4606.81 Safari/537.36 OPR/80.0.4170.91",WebKit,Opera,80.0.4170.91,Windows,10.0,16bd09c346ed3fd7ed45c3bb10d71816
36,1,"""",image-keyboard-response,58,324678,0.0-9.0-1.3,61562615e886d11f2ea18ff1,6195a02e1d2e6fc9ed9c4f34,6195a170976d1e2ac343fd46,61562615e886d11f2ea18ff1,6195a02e1d2e6fc9ed9c4f34,6195a170976d1e2ac343fd46,EASY,"""","""","""","""",703.7999999523163,img/flower_right.png,f,response,"""","""",f,1,"""",1,2021-11-18 00:42:29,186.35.53.166,"Mozilla/5.0 (Windows NT 10.0; Win64; x64) AppleWebKit/537.36 (KHTML, like Gecko) Chrome/94.0.4606.81 Safari/537.36 OPR/80.0.4170.91",WebKit,Opera,80.0.4170.91,Windows,10.0,16bd09c346ed3fd7ed45c3bb10d71816
36,1,"""",image-keyboard-response,59,325929,0.0-9.0-0.4,61562615e886d11f2ea18ff1,6195a02e1d2e6fc9ed9c4f34,6195a170976d1e2ac343fd46,61562615e886d11f2ea18ff1,6195a02e1d2e6fc9ed9c4f34,6195a170976d1e2ac343fd46,EASY,"""","""","""","""",null,img/fixation.png,null,fixation,"""","""","""","""","""",1,2021-11-18 00:42:29,186.35.53.166,"Mozilla/5.0 (Windows NT 10.0; Win64; x64) AppleWebKit/537.36 (KHTML, like Gecko) Chrome/94.0.4606.81 Safari/537.36 OPR/80.0.4170.91",WebKit,Opera,80.0.4170.91,Windows,10.0,16bd09c346ed3fd7ed45c3bb10d71816
36,1,"""",image-keyboard-response,60,326791,0.0-9.0-1.4,61562615e886d11f2ea18ff1,6195a02e1d2e6fc9ed9c4f34,6195a170976d1e2ac343fd46,61562615e886d11f2ea18ff1,6195a02e1d2e6fc9ed9c4f34,6195a170976d1e2ac343fd46,EASY,"""","""","""","""",856.9000000357628,img/heart_left.png,f,response,"""","""",f,1,"""",1,2021-11-18 00:42:29,186.35.53.166,"Mozilla/5.0 (Windows NT 10.0; Win64; x64) AppleWebKit/537.36 (KHTML, like Gecko) Chrome/94.0.4606.81 Safari/537.36 OPR/80.0.4170.91",WebKit,Opera,80.0.4170.91,Windows,10.0,16bd09c346ed3fd7ed45c3bb10d71816
36,1,"""",image-keyboard-response,61,327542,0.0-9.0-0.5,61562615e886d11f2ea18ff1,6195a02e1d2e6fc9ed9c4f34,6195a170976d1e2ac343fd46,61562615e886d11f2ea18ff1,6195a02e1d2e6fc9ed9c4f34,6195a170976d1e2ac343fd46,EASY,"""","""","""","""",null,img/fixation.png,null,fixation,"""","""","""","""","""",1,2021-11-18 00:42:29,186.35.53.166,"Mozilla/5.0 (Windows NT 10.0; Win64; x64) AppleWebKit/537.36 (KHTML, like Gecko) Chrome/94.0.4606.81 Safari/537.36 OPR/80.0.4170.91",WebKit,Opera,80.0.4170.91,Windows,10.0,16bd09c346ed3fd7ed45c3bb10d71816
36,1,"""",image-keyboard-response,62,328327,0.0-9.0-1.5,61562615e886d11f2ea18ff1,6195a02e1d2e6fc9ed9c4f34,6195a170976d1e2ac343fd46,61562615e886d11f2ea18ff1,6195a02e1d2e6fc9ed9c4f34,6195a170976d1e2ac343fd46,EASY,"""","""","""","""",784.1000000238419,img/flower_right.png,f,response,"""","""",f,1,"""",1,2021-11-18 00:42:29,186.35.53.166,"Mozilla/5.0 (Windows NT 10.0; Win64; x64) AppleWebKit/537.36 (KHTML, like Gecko) Chrome/94.0.4606.81 Safari/537.36 OPR/80.0.4170.91",WebKit,Opera,80.0.4170.91,Windows,10.0,16bd09c346ed3fd7ed45c3bb10d71816
36,1,"""",image-keyboard-response,63,330079,0.0-9.0-0.6,61562615e886d11f2ea18ff1,6195a02e1d2e6fc9ed9c4f34,6195a170976d1e2ac343fd46,61562615e886d11f2ea18ff1,6195a02e1d2e6fc9ed9c4f34,6195a170976d1e2ac343fd46,EASY,"""","""","""","""",null,img/fixation.png,null,fixation,"""","""","""","""","""",1,2021-11-18 00:42:29,186.35.53.166,"Mozilla/5.0 (Windows NT 10.0; Win64; x64) AppleWebKit/537.36 (KHTML, like Gecko) Chrome/94.0.4606.81 Safari/537.36 OPR/80.0.4170.91",WebKit,Opera,80.0.4170.91,Windows,10.0,16bd09c346ed3fd7ed45c3bb10d71816
36,1,"""",image-keyboard-response,64,330904,0.0-9.0-1.6,61562615e886d11f2ea18ff1,6195a02e1d2e6fc9ed9c4f34,6195a170976d1e2ac343fd46,61562615e886d11f2ea18ff1,6195a02e1d2e6fc9ed9c4f34,6195a170976d1e2ac343fd46,EASY,"""","""","""","""",823.8000000119209,img/flower_right.png,f,response,"""","""",f,1,"""",1,2021-11-18 00:42:29,186.35.53.166,"Mozilla/5.0 (Windows NT 10.0; Win64; x64) AppleWebKit/537.36 (KHTML, like Gecko) Chrome/94.0.4606.81 Safari/537.36 OPR/80.0.4170.91",WebKit,Opera,80.0.4170.91,Windows,10.0,16bd09c346ed3fd7ed45c3bb10d71816
36,1,"""",image-keyboard-response,65,332906,0.0-9.0-0.7,61562615e886d11f2ea18ff1,6195a02e1d2e6fc9ed9c4f34,6195a170976d1e2ac343fd46,61562615e886d11f2ea18ff1,6195a02e1d2e6fc9ed9c4f34,6195a170976d1e2ac343fd46,EASY,"""","""","""","""",null,img/fixation.png,null,fixation,"""","""","""","""","""",1,2021-11-18 00:42:29,186.35.53.166,"Mozilla/5.0 (Windows NT 10.0; Win64; x64) AppleWebKit/537.36 (KHTML, like Gecko) Chrome/94.0.4606.81 Safari/537.36 OPR/80.0.4170.91",WebKit,Opera,80.0.4170.91,Windows,10.0,16bd09c346ed3fd7ed45c3bb10d71816
36,1,"""",image-keyboard-response,66,333576,0.0-9.0-1.7,61562615e886d11f2ea18ff1,6195a02e1d2e6fc9ed9c4f34,6195a170976d1e2ac343fd46,61562615e886d11f2ea18ff1,6195a02e1d2e6fc9ed9c4f34,6195a170976d1e2ac343fd46,EASY,"""","""","""","""",668.3000000119209,img/heart_left.png,f,response,"""","""",f,1,"""",1,2021-11-18 00:42:29,186.35.53.166,"Mozilla/5.0 (Windows NT 10.0; Win64; x64) AppleWebKit/537.36 (KHTML, like Gecko) Chrome/94.0.4606.81 Safari/537.36 OPR/80.0.4170.91",WebKit,Opera,80.0.4170.91,Windows,10.0,16bd09c346ed3fd7ed45c3bb10d71816
36,1,"""",image-keyboard-response,67,333830,0.0-9.0-0.8,61562615e886d11f2ea18ff1,6195a02e1d2e6fc9ed9c4f34,6195a170976d1e2ac343fd46,61562615e886d11f2ea18ff1,6195a02e1d2e6fc9ed9c4f34,6195a170976d1e2ac343fd46,EASY,"""","""","""","""",null,img/fixation.png,null,fixation,"""","""","""","""","""",1,2021-11-18 00:42:29,186.35.53.166,"Mozilla/5.0 (Windows NT 10.0; Win64; x64) AppleWebKit/537.36 (KHTML, like Gecko) Chrome/94.0.4606.81 Safari/537.36 OPR/80.0.4170.91",WebKit,Opera,80.0.4170.91,Windows,10.0,16bd09c346ed3fd7ed45c3bb10d71816
36,1,"""",image-keyboard-response,68,334936,0.0-9.0-1.8,61562615e886d11f2ea18ff1,6195a02e1d2e6fc9ed9c4f34,6195a170976d1e2ac343fd46,61562615e886d11f2ea18ff1,6195a02e1d2e6fc9ed9c4f34,6195a170976d1e2ac343fd46,EASY,"""","""","""","""",1104.1000000238419,img/flower_left.png,j,response,"""","""",j,1,"""",1,2021-11-18 00:42:29,186.35.53.166,"Mozilla/5.0 (Windows NT 10.0; Win64; x64) AppleWebKit/537.36 (KHTML, like Gecko) Chrome/94.0.4606.81 Safari/537.36 OPR/80.0.4170.91",WebKit,Opera,80.0.4170.91,Windows,10.0,16bd09c346ed3fd7ed45c3bb10d71816
36,1,"""",image-keyboard-response,69,336937,0.0-9.0-0.9,61562615e886d11f2ea18ff1,6195a02e1d2e6fc9ed9c4f34,6195a170976d1e2ac343fd46,61562615e886d11f2ea18ff1,6195a02e1d2e6fc9ed9c4f34,6195a170976d1e2ac343fd46,EASY,"""","""","""","""",null,img/fixation.png,null,fixation,"""","""","""","""","""",1,2021-11-18 00:42:29,186.35.53.166,"Mozilla/5.0 (Windows NT 10.0; Win64; x64) AppleWebKit/537.36 (KHTML, like Gecko) Chrome/94.0.4606.81 Safari/537.36 OPR/80.0.4170.91",WebKit,Opera,80.0.4170.91,Windows,10.0,16bd09c346ed3fd7ed45c3bb10d71816
36,1,"""",image-keyboard-response,70,337800,0.0-9.0-1.9,61562615e886d11f2ea18ff1,6195a02e1d2e6fc9ed9c4f34,6195a170976d1e2ac343fd46,61562615e886d11f2ea18ff1,6195a02e1d2e6fc9ed9c4f34,6195a170976d1e2ac343fd46,EASY,"""","""","""","""",862,img/heart_right.png,j,response,"""","""",j,1,"""",1,2021-11-18 00:42:29,186.35.53.166,"Mozilla/5.0 (Windows NT 10.0; Win64; x64) AppleWebKit/537.36 (KHTML, like Gecko) Chrome/94.0.4606.81 Safari/537.36 OPR/80.0.4170.91",WebKit,Opera,80.0.4170.91,Windows,10.0,16bd09c346ed3fd7ed45c3bb10d71816
36,1,"""",html-keyboard-response,71,343641,0.0-10.0,61562615e886d11f2ea18ff1,6195a02e1d2e6fc9ed9c4f34,6195a170976d1e2ac343fd46,61562615e886d11f2ea18ff1,6195a02e1d2e6fc9ed9c4f34,6195a170976d1e2ac343fd46,EASY,"""","""","""","""",5837.899999976158,"<p>You responded correctly on 100% of the trials.</p>
      <p>Your average response time was 797ms.</p>
      <p>Press any key to begin Block 2!</p>",f,debrief,"""","""","""","""","""","""",2021-11-18 00:42:29,186.35.53.166,"Mozilla/5.0 (Windows NT 10.0; Win64; x64) AppleWebKit/537.36 (KHTML, like Gecko) Chrome/94.0.4606.81 Safari/537.36 OPR/80.0.4170.91",WebKit,Opera,80.0.4170.91,Windows,10.0,16bd09c346ed3fd7ed45c3bb10d71816
36,1,"""",html-button-response,72,346034,0.0-11.0,61562615e886d11f2ea18ff1,6195a02e1d2e6fc9ed9c4f34,6195a170976d1e2ac343fd46,61562615e886d11f2ea18ff1,6195a02e1d2e6fc9ed9c4f34,6195a170976d1e2ac343fd46,EASY,"""","""","""","""",2392.100000023842,Block 2,0,"""","""","""","""","""","""","""",2021-11-18 00:42:29,186.35.53.166,"Mozilla/5.0 (Windows NT 10.0; Win64; x64) AppleWebKit/537.36 (KHTML, like Gecko) Chrome/94.0.4606.81 Safari/537.36 OPR/80.0.4170.91",WebKit,Opera,80.0.4170.91,Windows,10.0,16bd09c346ed3fd7ed45c3bb10d71816
36,1,"""",image-keyboard-response,73,349788,0.0-12.0-0.0,61562615e886d11f2ea18ff1,6195a02e1d2e6fc9ed9c4f34,6195a170976d1e2ac343fd46,61562615e886d11f2ea18ff1,6195a02e1d2e6fc9ed9c4f34,6195a170976d1e2ac343fd46,EASY,"""","""","""","""",null,img/fixation.png,null,fixation,"""","""","""","""","""",2,2021-11-18 00:42:29,186.35.53.166,"Mozilla/5.0 (Windows NT 10.0; Win64; x64) AppleWebKit/537.36 (KHTML, like Gecko) Chrome/94.0.4606.81 Safari/537.36 OPR/80.0.4170.91",WebKit,Opera,80.0.4170.91,Windows,10.0,16bd09c346ed3fd7ed45c3bb10d71816
36,1,"""",image-keyboard-response,74,350506,0.0-12.0-1.0,61562615e886d11f2ea18ff1,6195a02e1d2e6fc9ed9c4f34,6195a170976d1e2ac343fd46,61562615e886d11f2ea18ff1,6195a02e1d2e6fc9ed9c4f34,6195a170976d1e2ac343fd46,EASY,"""","""","""","""",716.8000000119209,img/heart_left.png,f,response,"""","""",f,1,"""",2,2021-11-18 00:42:29,186.35.53.166,"Mozilla/5.0 (Windows NT 10.0; Win64; x64) AppleWebKit/537.36 (KHTML, like Gecko) Chrome/94.0.4606.81 Safari/537.36 OPR/80.0.4170.91",WebKit,Opera,80.0.4170.91,Windows,10.0,16bd09c346ed3fd7ed45c3bb10d71816
36,1,"""",image-keyboard-response,75,351009,0.0-12.0-0.1,61562615e886d11f2ea18ff1,6195a02e1d2e6fc9ed9c4f34,6195a170976d1e2ac343fd46,61562615e886d11f2ea18ff1,6195a02e1d2e6fc9ed9c4f34,6195a170976d1e2ac343fd46,EASY,"""","""","""","""",null,img/fixation.png,null,fixation,"""","""","""","""","""",2,2021-11-18 00:42:29,186.35.53.166,"Mozilla/5.0 (Windows NT 10.0; Win64; x64) AppleWebKit/537.36 (KHTML, like Gecko) Chrome/94.0.4606.81 Safari/537.36 OPR/80.0.4170.91",WebKit,Opera,80.0.4170.91,Windows,10.0,16bd09c346ed3fd7ed45c3bb10d71816
36,1,"""",image-keyboard-response,76,352010,0.0-12.0-1.1,61562615e886d11f2ea18ff1,6195a02e1d2e6fc9ed9c4f34,6195a170976d1e2ac343fd46,61562615e886d11f2ea18ff1,6195a02e1d2e6fc9ed9c4f34,6195a170976d1e2ac343fd46,EASY,"""","""","""","""",1000.3999999761581,img/heart_right.png,j,response,"""","""",j,1,"""",2,2021-11-18 00:42:29,186.35.53.166,"Mozilla/5.0 (Windows NT 10.0; Win64; x64) AppleWebKit/537.36 (KHTML, like Gecko) Chrome/94.0.4606.81 Safari/537.36 OPR/80.0.4170.91",WebKit,Opera,80.0.4170.91,Windows,10.0,16bd09c346ed3fd7ed45c3bb10d71816
36,1,"""",image-keyboard-response,77,354015,0.0-12.0-0.2,61562615e886d11f2ea18ff1,6195a02e1d2e6fc9ed9c4f34,6195a170976d1e2ac343fd46,61562615e886d11f2ea18ff1,6195a02e1d2e6fc9ed9c4f34,6195a170976d1e2ac343fd46,EASY,"""","""","""","""",null,img/fixation.png,null,fixation,"""","""","""","""","""",2,2021-11-18 00:42:29,186.35.53.166,"Mozilla/5.0 (Windows NT 10.0; Win64; x64) AppleWebKit/537.36 (KHTML, like Gecko) Chrome/94.0.4606.81 Safari/537.36 OPR/80.0.4170.91",WebKit,Opera,80.0.4170.91,Windows,10.0,16bd09c346ed3fd7ed45c3bb10d71816
36,1,"""",image-keyboard-response,78,354939,0.0-12.0-1.2,61562615e886d11f2ea18ff1,6195a02e1d2e6fc9ed9c4f34,6195a170976d1e2ac343fd46,61562615e886d11f2ea18ff1,6195a02e1d2e6fc9ed9c4f34,6195a170976d1e2ac343fd46,EASY,"""","""","""","""",920,img/heart_right.png,j,response,"""","""",j,1,"""",2,2021-11-18 00:42:29,186.35.53.166,"Mozilla/5.0 (Windows NT 10.0; Win64; x64) AppleWebKit/537.36 (KHTML, like Gecko) Chrome/94.0.4606.81 Safari/537.36 OPR/80.0.4170.91",WebKit,Opera,80.0.4170.91,Windows,10.0,16bd09c346ed3fd7ed45c3bb10d71816
36,1,"""",image-keyboard-response,79,356941,0.0-12.0-0.3,61562615e886d11f2ea18ff1,6195a02e1d2e6fc9ed9c4f34,6195a170976d1e2ac343fd46,61562615e886d11f2ea18ff1,6195a02e1d2e6fc9ed9c4f34,6195a170976d1e2ac343fd46,EASY,"""","""","""","""",null,img/fixation.png,null,fixation,"""","""","""","""","""",2,2021-11-18 00:42:29,186.35.53.166,"Mozilla/5.0 (Windows NT 10.0; Win64; x64) AppleWebKit/537.36 (KHTML, like Gecko) Chrome/94.0.4606.81 Safari/537.36 OPR/80.0.4170.91",WebKit,Opera,80.0.4170.91,Windows,10.0,16bd09c346ed3fd7ed45c3bb10d71816
36,1,"""",image-keyboard-response,80,357739,0.0-12.0-1.3,61562615e886d11f2ea18ff1,6195a02e1d2e6fc9ed9c4f34,6195a170976d1e2ac343fd46,61562615e886d11f2ea18ff1,6195a02e1d2e6fc9ed9c4f34,6195a170976d1e2ac343fd46,EASY,"""","""","""","""",796.3999999761581,img/heart_right.png,j,response,"""","""",j,1,"""",2,2021-11-18 00:42:29,186.35.53.166,"Mozilla/5.0 (Windows NT 10.0; Win64; x64) AppleWebKit/537.36 (KHTML, like Gecko) Chrome/94.0.4606.81 Safari/537.36 OPR/80.0.4170.91",WebKit,Opera,80.0.4170.91,Windows,10.0,16bd09c346ed3fd7ed45c3bb10d71816
36,1,"""",image-keyboard-response,81,359741,0.0-12.0-0.4,61562615e886d11f2ea18ff1,6195a02e1d2e6fc9ed9c4f34,6195a170976d1e2ac343fd46,61562615e886d11f2ea18ff1,6195a02e1d2e6fc9ed9c4f34,6195a170976d1e2ac343fd46,EASY,"""","""","""","""",null,img/fixation.png,null,fixation,"""","""","""","""","""",2,2021-11-18 00:42:29,186.35.53.166,"Mozilla/5.0 (Windows NT 10.0; Win64; x64) AppleWebKit/537.36 (KHTML, like Gecko) Chrome/94.0.4606.81 Safari/537.36 OPR/80.0.4170.91",WebKit,Opera,80.0.4170.91,Windows,10.0,16bd09c346ed3fd7ed45c3bb10d71816
36,1,"""",image-keyboard-response,82,360411,0.0-12.0-1.4,61562615e886d11f2ea18ff1,6195a02e1d2e6fc9ed9c4f34,6195a170976d1e2ac343fd46,61562615e886d11f2ea18ff1,6195a02e1d2e6fc9ed9c4f34,6195a170976d1e2ac343fd46,EASY,"""","""","""","""",668.8000000119209,img/flower_right.png,f,response,"""","""",f,1,"""",2,2021-11-18 00:42:29,186.35.53.166,"Mozilla/5.0 (Windows NT 10.0; Win64; x64) AppleWebKit/537.36 (KHTML, like Gecko) Chrome/94.0.4606.81 Safari/537.36 OPR/80.0.4170.91",WebKit,Opera,80.0.4170.91,Windows,10.0,16bd09c346ed3fd7ed45c3bb10d71816
36,1,"""",image-keyboard-response,83,360913,0.0-12.0-0.5,61562615e886d11f2ea18ff1,6195a02e1d2e6fc9ed9c4f34,6195a170976d1e2ac343fd46,61562615e886d11f2ea18ff1,6195a02e1d2e6fc9ed9c4f34,6195a170976d1e2ac343fd46,EASY,"""","""","""","""",null,img/fixation.png,null,fixation,"""","""","""","""","""",2,2021-11-18 00:42:29,186.35.53.166,"Mozilla/5.0 (Windows NT 10.0; Win64; x64) AppleWebKit/537.36 (KHTML, like Gecko) Chrome/94.0.4606.81 Safari/537.36 OPR/80.0.4170.91",WebKit,Opera,80.0.4170.91,Windows,10.0,16bd09c346ed3fd7ed45c3bb10d71816
36,1,"""",image-keyboard-response,84,361387,0.0-12.0-1.5,61562615e886d11f2ea18ff1,6195a02e1d2e6fc9ed9c4f34,6195a170976d1e2ac343fd46,61562615e886d11f2ea18ff1,6195a02e1d2e6fc9ed9c4f34,6195a170976d1e2ac343fd46,EASY,"""","""","""","""",473,img/flower_right.png,f,response,"""","""",f,1,"""",2,2021-11-18 00:42:29,186.35.53.166,"Mozilla/5.0 (Windows NT 10.0; Win64; x64) AppleWebKit/537.36 (KHTML, like Gecko) Chrome/94.0.4606.81 Safari/537.36 OPR/80.0.4170.91",WebKit,Opera,80.0.4170.91,Windows,10.0,16bd09c346ed3fd7ed45c3bb10d71816
36,1,"""",image-keyboard-response,85,362391,0.0-12.0-0.6,61562615e886d11f2ea18ff1,6195a02e1d2e6fc9ed9c4f34,6195a170976d1e2ac343fd46,61562615e886d11f2ea18ff1,6195a02e1d2e6fc9ed9c4f34,6195a170976d1e2ac343fd46,EASY,"""","""","""","""",null,img/fixation.png,null,fixation,"""","""","""","""","""",2,2021-11-18 00:42:29,186.35.53.166,"Mozilla/5.0 (Windows NT 10.0; Win64; x64) AppleWebKit/537.36 (KHTML, like Gecko) Chrome/94.0.4606.81 Safari/537.36 OPR/80.0.4170.91",WebKit,Opera,80.0.4170.91,Windows,10.0,16bd09c346ed3fd7ed45c3bb10d71816
36,1,"""",image-keyboard-response,86,362859,0.0-12.0-1.6,61562615e886d11f2ea18ff1,6195a02e1d2e6fc9ed9c4f34,6195a170976d1e2ac343fd46,61562615e886d11f2ea18ff1,6195a02e1d2e6fc9ed9c4f34,6195a170976d1e2ac343fd46,EASY,"""","""","""","""",464.5,img/flower_right.png,f,response,"""","""",f,1,"""",2,2021-11-18 00:42:29,186.35.53.166,"Mozilla/5.0 (Windows NT 10.0; Win64; x64) AppleWebKit/537.36 (KHTML, like Gecko) Chrome/94.0.4606.81 Safari/537.36 OPR/80.0.4170.91",WebKit,Opera,80.0.4170.91,Windows,10.0,16bd09c346ed3fd7ed45c3bb10d71816
36,1,"""",image-keyboard-response,87,364610,0.0-12.0-0.7,61562615e886d11f2ea18ff1,6195a02e1d2e6fc9ed9c4f34,6195a170976d1e2ac343fd46,61562615e886d11f2ea18ff1,6195a02e1d2e6fc9ed9c4f34,6195a170976d1e2ac343fd46,EASY,"""","""","""","""",null,img/fixation.png,null,fixation,"""","""","""","""","""",2,2021-11-18 00:42:29,186.35.53.166,"Mozilla/5.0 (Windows NT 10.0; Win64; x64) AppleWebKit/537.36 (KHTML, like Gecko) Chrome/94.0.4606.81 Safari/537.36 OPR/80.0.4170.91",WebKit,Opera,80.0.4170.91,Windows,10.0,16bd09c346ed3fd7ed45c3bb10d71816
36,1,"""",image-keyboard-response,88,365627,0.0-12.0-1.7,61562615e886d11f2ea18ff1,6195a02e1d2e6fc9ed9c4f34,6195a170976d1e2ac343fd46,61562615e886d11f2ea18ff1,6195a02e1d2e6fc9ed9c4f34,6195a170976d1e2ac343fd46,EASY,"""","""","""","""",1015.7999999523163,img/flower_left.png,j,response,"""","""",j,1,"""",2,2021-11-18 00:42:29,186.35.53.166,"Mozilla/5.0 (Windows NT 10.0; Win64; x64) AppleWebKit/537.36 (KHTML, like Gecko) Chrome/94.0.4606.81 Safari/537.36 OPR/80.0.4170.91",WebKit,Opera,80.0.4170.91,Windows,10.0,16bd09c346ed3fd7ed45c3bb10d71816
36,1,"""",image-keyboard-response,89,365879,0.0-12.0-0.8,61562615e886d11f2ea18ff1,6195a02e1d2e6fc9ed9c4f34,6195a170976d1e2ac343fd46,61562615e886d11f2ea18ff1,6195a02e1d2e6fc9ed9c4f34,6195a170976d1e2ac343fd46,EASY,"""","""","""","""",null,img/fixation.png,null,fixation,"""","""","""","""","""",2,2021-11-18 00:42:29,186.35.53.166,"Mozilla/5.0 (Windows NT 10.0; Win64; x64) AppleWebKit/537.36 (KHTML, like Gecko) Chrome/94.0.4606.81 Safari/537.36 OPR/80.0.4170.91",WebKit,Opera,80.0.4170.91,Windows,10.0,16bd09c346ed3fd7ed45c3bb10d71816
36,1,"""",image-keyboard-response,90,366524,0.0-12.0-1.8,61562615e886d11f2ea18ff1,6195a02e1d2e6fc9ed9c4f34,6195a170976d1e2ac343fd46,61562615e886d11f2ea18ff1,6195a02e1d2e6fc9ed9c4f34,6195a170976d1e2ac343fd46,EASY,"""","""","""","""",643.6999999880791,img/heart_left.png,f,response,"""","""",f,1,"""",2,2021-11-18 00:42:29,186.35.53.166,"Mozilla/5.0 (Windows NT 10.0; Win64; x64) AppleWebKit/537.36 (KHTML, like Gecko) Chrome/94.0.4606.81 Safari/537.36 OPR/80.0.4170.91",WebKit,Opera,80.0.4170.91,Windows,10.0,16bd09c346ed3fd7ed45c3bb10d71816
36,1,"""",image-keyboard-response,91,368526,0.0-12.0-0.9,61562615e886d11f2ea18ff1,6195a02e1d2e6fc9ed9c4f34,6195a170976d1e2ac343fd46,61562615e886d11f2ea18ff1,6195a02e1d2e6fc9ed9c4f34,6195a170976d1e2ac343fd46,EASY,"""","""","""","""",null,img/fixation.png,null,fixation,"""","""","""","""","""",2,2021-11-18 00:42:29,186.35.53.166,"Mozilla/5.0 (Windows NT 10.0; Win64; x64) AppleWebKit/537.36 (KHTML, like Gecko) Chrome/94.0.4606.81 Safari/537.36 OPR/80.0.4170.91",WebKit,Opera,80.0.4170.91,Windows,10.0,16bd09c346ed3fd7ed45c3bb10d71816
36,1,"""",image-keyboard-response,92,369597,0.0-12.0-1.9,61562615e886d11f2ea18ff1,6195a02e1d2e6fc9ed9c4f34,6195a170976d1e2ac343fd46,61562615e886d11f2ea18ff1,6195a02e1d2e6fc9ed9c4f34,6195a170976d1e2ac343fd46,EASY,"""","""","""","""",1069.300000011921,img/heart_right.png,j,response,"""","""",j,1,"""",2,2021-11-18 00:42:29,186.35.53.166,"Mozilla/5.0 (Windows NT 10.0; Win64; x64) AppleWebKit/537.36 (KHTML, like Gecko) Chrome/94.0.4606.81 Safari/537.36 OPR/80.0.4170.91",WebKit,Opera,80.0.4170.91,Windows,10.0,16bd09c346ed3fd7ed45c3bb10d71816
36,1,"""",html-keyboard-response,93,374717,0.0-13.0,61562615e886d11f2ea18ff1,6195a02e1d2e6fc9ed9c4f34,6195a170976d1e2ac343fd46,61562615e886d11f2ea18ff1,6195a02e1d2e6fc9ed9c4f34,6195a170976d1e2ac343fd46,EASY,"""","""","""","""",5119.199999988079,"<p>You responded correctly on 100% of the trials.</p>
      <p>Your average response time was 777ms.</p>
      <p>Press any key to begin Block 3!</p>",f,debrief,"""","""","""","""","""","""",2021-11-18 00:42:29,186.35.53.166,"Mozilla/5.0 (Windows NT 10.0; Win64; x64) AppleWebKit/537.36 (KHTML, like Gecko) Chrome/94.0.4606.81 Safari/537.36 OPR/80.0.4170.91",WebKit,Opera,80.0.4170.91,Windows,10.0,16bd09c346ed3fd7ed45c3bb10d71816
36,1,"""",html-button-response,94,375917,0.0-14.0,61562615e886d11f2ea18ff1,6195a02e1d2e6fc9ed9c4f34,6195a170976d1e2ac343fd46,61562615e886d11f2ea18ff1,6195a02e1d2e6fc9ed9c4f34,6195a170976d1e2ac343fd46,EASY,"""","""","""","""",1197.3999999761581,Block 3,0,"""","""","""","""","""","""","""",2021-11-18 00:42:29,186.35.53.166,"Mozilla/5.0 (Windows NT 10.0; Win64; x64) AppleWebKit/537.36 (KHTML, like Gecko) Chrome/94.0.4606.81 Safari/537.36 OPR/80.0.4170.91",WebKit,Opera,80.0.4170.91,Windows,10.0,16bd09c346ed3fd7ed45c3bb10d71816
36,1,"""",image-keyboard-response,95,379669,0.0-15.0-0.0,61562615e886d11f2ea18ff1,6195a02e1d2e6fc9ed9c4f34,6195a170976d1e2ac343fd46,61562615e886d11f2ea18ff1,6195a02e1d2e6fc9ed9c4f34,6195a170976d1e2ac343fd46,EASY,"""","""","""","""",null,img/fixation.png,null,fixation,"""","""","""","""","""",3,2021-11-18 00:42:29,186.35.53.166,"Mozilla/5.0 (Windows NT 10.0; Win64; x64) AppleWebKit/537.36 (KHTML, like Gecko) Chrome/94.0.4606.81 Safari/537.36 OPR/80.0.4170.91",WebKit,Opera,80.0.4170.91,Windows,10.0,16bd09c346ed3fd7ed45c3bb10d71816
36,1,"""",image-keyboard-response,96,380510,0.0-15.0-1.0,61562615e886d11f2ea18ff1,6195a02e1d2e6fc9ed9c4f34,6195a170976d1e2ac343fd46,61562615e886d11f2ea18ff1,6195a02e1d2e6fc9ed9c4f34,6195a170976d1e2ac343fd46,EASY,"""","""","""","""",839.4000000357628,img/heart_right.png,j,response,"""","""",j,1,"""",3,2021-11-18 00:42:29,186.35.53.166,"Mozilla/5.0 (Windows NT 10.0; Win64; x64) AppleWebKit/537.36 (KHTML, like Gecko) Chrome/94.0.4606.81 Safari/537.36 OPR/80.0.4170.91",WebKit,Opera,80.0.4170.91,Windows,10.0,16bd09c346ed3fd7ed45c3bb10d71816
36,1,"""",image-keyboard-response,97,381762,0.0-15.0-0.1,61562615e886d11f2ea18ff1,6195a02e1d2e6fc9ed9c4f34,6195a170976d1e2ac343fd46,61562615e886d11f2ea18ff1,6195a02e1d2e6fc9ed9c4f34,6195a170976d1e2ac343fd46,EASY,"""","""","""","""",null,img/fixation.png,null,fixation,"""","""","""","""","""",3,2021-11-18 00:42:29,186.35.53.166,"Mozilla/5.0 (Windows NT 10.0; Win64; x64) AppleWebKit/537.36 (KHTML, like Gecko) Chrome/94.0.4606.81 Safari/537.36 OPR/80.0.4170.91",WebKit,Opera,80.0.4170.91,Windows,10.0,16bd09c346ed3fd7ed45c3bb10d71816
36,1,"""",image-keyboard-response,98,382574,0.0-15.0-1.1,61562615e886d11f2ea18ff1,6195a02e1d2e6fc9ed9c4f34,6195a170976d1e2ac343fd46,61562615e886d11f2ea18ff1,6195a02e1d2e6fc9ed9c4f34,6195a170976d1e2ac343fd46,EASY,"""","""","""","""",810.6000000238419,img/flower_right.png,f,response,"""","""",f,1,"""",3,2021-11-18 00:42:29,186.35.53.166,"Mozilla/5.0 (Windows NT 10.0; Win64; x64) AppleWebKit/537.36 (KHTML, like Gecko) Chrome/94.0.4606.81 Safari/537.36 OPR/80.0.4170.91",WebKit,Opera,80.0.4170.91,Windows,10.0,16bd09c346ed3fd7ed45c3bb10d71816
36,1,"""",image-keyboard-response,99,383825,0.0-15.0-0.2,61562615e886d11f2ea18ff1,6195a02e1d2e6fc9ed9c4f34,6195a170976d1e2ac343fd46,61562615e886d11f2ea18ff1,6195a02e1d2e6fc9ed9c4f34,6195a170976d1e2ac343fd46,EASY,"""","""","""","""",null,img/fixation.png,null,fixation,"""","""","""","""","""",3,2021-11-18 00:42:29,186.35.53.166,"Mozilla/5.0 (Windows NT 10.0; Win64; x64) AppleWebKit/537.36 (KHTML, like Gecko) Chrome/94.0.4606.81 Safari/537.36 OPR/80.0.4170.91",WebKit,Opera,80.0.4170.91,Windows,10.0,16bd09c346ed3fd7ed45c3bb10d71816
36,1,"""",image-keyboard-response,100,384462,0.0-15.0-1.2,61562615e886d11f2ea18ff1,6195a02e1d2e6fc9ed9c4f34,6195a170976d1e2ac343fd46,61562615e886d11f2ea18ff1,6195a02e1d2e6fc9ed9c4f34,6195a170976d1e2ac343fd46,EASY,"""","""","""","""",634.5,img/flower_right.png,f,response,"""","""",f,1,"""",3,2021-11-18 00:42:29,186.35.53.166,"Mozilla/5.0 (Windows NT 10.0; Win64; x64) AppleWebKit/537.36 (KHTML, like Gecko) Chrome/94.0.4606.81 Safari/537.36 OPR/80.0.4170.91",WebKit,Opera,80.0.4170.91,Windows,10.0,16bd09c346ed3fd7ed45c3bb10d71816
36,1,"""",image-keyboard-response,101,385963,0.0-15.0-0.3,61562615e886d11f2ea18ff1,6195a02e1d2e6fc9ed9c4f34,6195a170976d1e2ac343fd46,61562615e886d11f2ea18ff1,6195a02e1d2e6fc9ed9c4f34,6195a170976d1e2ac343fd46,EASY,"""","""","""","""",null,img/fixation.png,null,fixation,"""","""","""","""","""",3,2021-11-18 00:42:29,186.35.53.166,"Mozilla/5.0 (Windows NT 10.0; Win64; x64) AppleWebKit/537.36 (KHTML, like Gecko) Chrome/94.0.4606.81 Safari/537.36 OPR/80.0.4170.91",WebKit,Opera,80.0.4170.91,Windows,10.0,16bd09c346ed3fd7ed45c3bb10d71816
36,1,"""",image-keyboard-response,102,386687,0.0-15.0-1.3,61562615e886d11f2ea18ff1,6195a02e1d2e6fc9ed9c4f34,6195a170976d1e2ac343fd46,61562615e886d11f2ea18ff1,6195a02e1d2e6fc9ed9c4f34,6195a170976d1e2ac343fd46,EASY,"""","""","""","""",722.0999999642372,img/flower_right.png,f,response,"""","""",f,1,"""",3,2021-11-18 00:42:29,186.35.53.166,"Mozilla/5.0 (Windows NT 10.0; Win64; x64) AppleWebKit/537.36 (KHTML, like Gecko) Chrome/94.0.4606.81 Safari/537.36 OPR/80.0.4170.91",WebKit,Opera,80.0.4170.91,Windows,10.0,16bd09c346ed3fd7ed45c3bb10d71816
36,1,"""",image-keyboard-response,103,387188,0.0-15.0-0.4,61562615e886d11f2ea18ff1,6195a02e1d2e6fc9ed9c4f34,6195a170976d1e2ac343fd46,61562615e886d11f2ea18ff1,6195a02e1d2e6fc9ed9c4f34,6195a170976d1e2ac343fd46,EASY,"""","""","""","""",null,img/fixation.png,null,fixation,"""","""","""","""","""",3,2021-11-18 00:42:29,186.35.53.166,"Mozilla/5.0 (Windows NT 10.0; Win64; x64) AppleWebKit/537.36 (KHTML, like Gecko) Chrome/94.0.4606.81 Safari/537.36 OPR/80.0.4170.91",WebKit,Opera,80.0.4170.91,Windows,10.0,16bd09c346ed3fd7ed45c3bb10d71816
36,1,"""",image-keyboard-response,104,388031,0.0-15.0-1.4,61562615e886d11f2ea18ff1,6195a02e1d2e6fc9ed9c4f34,6195a170976d1e2ac343fd46,61562615e886d11f2ea18ff1,6195a02e1d2e6fc9ed9c4f34,6195a170976d1e2ac343fd46,EASY,"""","""","""","""",841.8999999761581,img/flower_left.png,j,response,"""","""",j,1,"""",3,2021-11-18 00:42:29,186.35.53.166,"Mozilla/5.0 (Windows NT 10.0; Win64; x64) AppleWebKit/537.36 (KHTML, like Gecko) Chrome/94.0.4606.81 Safari/537.36 OPR/80.0.4170.91",WebKit,Opera,80.0.4170.91,Windows,10.0,16bd09c346ed3fd7ed45c3bb10d71816
36,1,"""",image-keyboard-response,105,389283,0.0-15.0-0.5,61562615e886d11f2ea18ff1,6195a02e1d2e6fc9ed9c4f34,6195a170976d1e2ac343fd46,61562615e886d11f2ea18ff1,6195a02e1d2e6fc9ed9c4f34,6195a170976d1e2ac343fd46,EASY,"""","""","""","""",null,img/fixation.png,null,fixation,"""","""","""","""","""",3,2021-11-18 00:42:29,186.35.53.166,"Mozilla/5.0 (Windows NT 10.0; Win64; x64) AppleWebKit/537.36 (KHTML, like Gecko) Chrome/94.0.4606.81 Safari/537.36 OPR/80.0.4170.91",WebKit,Opera,80.0.4170.91,Windows,10.0,16bd09c346ed3fd7ed45c3bb10d71816
36,1,"""",image-keyboard-response,106,390335,0.0-15.0-1.5,61562615e886d11f2ea18ff1,6195a02e1d2e6fc9ed9c4f34,6195a170976d1e2ac343fd46,61562615e886d11f2ea18ff1,6195a02e1d2e6fc9ed9c4f34,6195a170976d1e2ac343fd46,EASY,"""","""","""","""",1051.5,img/heart_left.png,f,response,"""","""",f,1,"""",3,2021-11-18 00:42:29,186.35.53.166,"Mozilla/5.0 (Windows NT 10.0; Win64; x64) AppleWebKit/537.36 (KHTML, like Gecko) Chrome/94.0.4606.81 Safari/537.36 OPR/80.0.4170.91",WebKit,Opera,80.0.4170.91,Windows,10.0,16bd09c346ed3fd7ed45c3bb10d71816
36,1,"""",image-keyboard-response,107,392086,0.0-15.0-0.6,61562615e886d11f2ea18ff1,6195a02e1d2e6fc9ed9c4f34,6195a170976d1e2ac343fd46,61562615e886d11f2ea18ff1,6195a02e1d2e6fc9ed9c4f34,6195a170976d1e2ac343fd46,EASY,"""","""","""","""",null,img/fixation.png,null,fixation,"""","""","""","""","""",3,2021-11-18 00:42:29,186.35.53.166,"Mozilla/5.0 (Windows NT 10.0; Win64; x64) AppleWebKit/537.36 (KHTML, like Gecko) Chrome/94.0.4606.81 Safari/537.36 OPR/80.0.4170.91",WebKit,Opera,80.0.4170.91,Windows,10.0,16bd09c346ed3fd7ed45c3bb10d71816
36,1,"""",image-keyboard-response,108,392864,0.0-15.0-1.6,61562615e886d11f2ea18ff1,6195a02e1d2e6fc9ed9c4f34,6195a170976d1e2ac343fd46,61562615e886d11f2ea18ff1,6195a02e1d2e6fc9ed9c4f34,6195a170976d1e2ac343fd46,EASY,"""","""","""","""",774.6999999880791,img/heart_right.png,j,response,"""","""",j,1,"""",3,2021-11-18 00:42:29,186.35.53.166,"Mozilla/5.0 (Windows NT 10.0; Win64; x64) AppleWebKit/537.36 (KHTML, like Gecko) Chrome/94.0.4606.81 Safari/537.36 OPR/80.0.4170.91",WebKit,Opera,80.0.4170.91,Windows,10.0,16bd09c346ed3fd7ed45c3bb10d71816
36,1,"""",image-keyboard-response,109,393866,0.0-15.0-0.7,61562615e886d11f2ea18ff1,6195a02e1d2e6fc9ed9c4f34,6195a170976d1e2ac343fd46,61562615e886d11f2ea18ff1,6195a02e1d2e6fc9ed9c4f34,6195a170976d1e2ac343fd46,EASY,"""","""","""","""",null,img/fixation.png,null,fixation,"""","""","""","""","""",3,2021-11-18 00:42:29,186.35.53.166,"Mozilla/5.0 (Windows NT 10.0; Win64; x64) AppleWebKit/537.36 (KHTML, like Gecko) Chrome/94.0.4606.81 Safari/537.36 OPR/80.0.4170.91",WebKit,Opera,80.0.4170.91,Windows,10.0,16bd09c346ed3fd7ed45c3bb10d71816
36,1,"""",image-keyboard-response,110,394864,0.0-15.0-1.7,61562615e886d11f2ea18ff1,6195a02e1d2e6fc9ed9c4f34,6195a170976d1e2ac343fd46,61562615e886d11f2ea18ff1,6195a02e1d2e6fc9ed9c4f34,6195a170976d1e2ac343fd46,EASY,"""","""","""","""",996.6999999880791,img/flower_right.png,f,response,"""","""",f,1,"""",3,2021-11-18 00:42:29,186.35.53.166,"Mozilla/5.0 (Windows NT 10.0; Win64; x64) AppleWebKit/537.36 (KHTML, like Gecko) Chrome/94.0.4606.81 Safari/537.36 OPR/80.0.4170.91",WebKit,Opera,80.0.4170.91,Windows,10.0,16bd09c346ed3fd7ed45c3bb10d71816
36,1,"""",image-keyboard-response,111,396865,0.0-15.0-0.8,61562615e886d11f2ea18ff1,6195a02e1d2e6fc9ed9c4f34,6195a170976d1e2ac343fd46,61562615e886d11f2ea18ff1,6195a02e1d2e6fc9ed9c4f34,6195a170976d1e2ac343fd46,EASY,"""","""","""","""",null,img/fixation.png,null,fixation,"""","""","""","""","""",3,2021-11-18 00:42:29,186.35.53.166,"Mozilla/5.0 (Windows NT 10.0; Win64; x64) AppleWebKit/537.36 (KHTML, like Gecko) Chrome/94.0.4606.81 Safari/537.36 OPR/80.0.4170.91",WebKit,Opera,80.0.4170.91,Windows,10.0,16bd09c346ed3fd7ed45c3bb10d71816
36,1,"""",image-keyboard-response,112,397664,0.0-15.0-1.8,61562615e886d11f2ea18ff1,6195a02e1d2e6fc9ed9c4f34,6195a170976d1e2ac343fd46,61562615e886d11f2ea18ff1,6195a02e1d2e6fc9ed9c4f34,6195a170976d1e2ac343fd46,EASY,"""","""","""","""",797.3000000119209,img/heart_left.png,f,response,"""","""",f,1,"""",3,2021-11-18 00:42:29,186.35.53.166,"Mozilla/5.0 (Windows NT 10.0; Win64; x64) AppleWebKit/537.36 (KHTML, like Gecko) Chrome/94.0.4606.81 Safari/537.36 OPR/80.0.4170.91",WebKit,Opera,80.0.4170.91,Windows,10.0,16bd09c346ed3fd7ed45c3bb10d71816
36,1,"""",image-keyboard-response,113,399665,0.0-15.0-0.9,61562615e886d11f2ea18ff1,6195a02e1d2e6fc9ed9c4f34,6195a170976d1e2ac343fd46,61562615e886d11f2ea18ff1,6195a02e1d2e6fc9ed9c4f34,6195a170976d1e2ac343fd46,EASY,"""","""","""","""",null,img/fixation.png,null,fixation,"""","""","""","""","""",3,2021-11-18 00:42:29,186.35.53.166,"Mozilla/5.0 (Windows NT 10.0; Win64; x64) AppleWebKit/537.36 (KHTML, like Gecko) Chrome/94.0.4606.81 Safari/537.36 OPR/80.0.4170.91",WebKit,Opera,80.0.4170.91,Windows,10.0,16bd09c346ed3fd7ed45c3bb10d71816
36,1,"""",image-keyboard-response,114,400656,0.0-15.0-1.9,61562615e886d11f2ea18ff1,6195a02e1d2e6fc9ed9c4f34,6195a170976d1e2ac343fd46,61562615e886d11f2ea18ff1,6195a02e1d2e6fc9ed9c4f34,6195a170976d1e2ac343fd46,EASY,"""","""","""","""",990.0999999642372,img/flower_right.png,f,response,"""","""",f,1,"""",3,2021-11-18 00:42:29,186.35.53.166,"Mozilla/5.0 (Windows NT 10.0; Win64; x64) AppleWebKit/537.36 (KHTML, like Gecko) Chrome/94.0.4606.81 Safari/537.36 OPR/80.0.4170.91",WebKit,Opera,80.0.4170.91,Windows,10.0,16bd09c346ed3fd7ed45c3bb10d71816
36,1,"""",html-keyboard-response,115,403281,0.0-16.0,61562615e886d11f2ea18ff1,6195a02e1d2e6fc9ed9c4f34,6195a170976d1e2ac343fd46,61562615e886d11f2ea18ff1,6195a02e1d2e6fc9ed9c4f34,6195a170976d1e2ac343fd46,EASY,"""","""","""","""",2621.7999999523163,"<p>You responded correctly on 100% of the trials.</p>
      <p>Your average response time was 846ms.</p>
      <p>Press any key to begin the final Block 4!</p>",f,debrief,"""","""","""","""","""","""",2021-11-18 00:42:29,186.35.53.166,"Mozilla/5.0 (Windows NT 10.0; Win64; x64) AppleWebKit/537.36 (KHTML, like Gecko) Chrome/94.0.4606.81 Safari/537.36 OPR/80.0.4170.91",WebKit,Opera,80.0.4170.91,Windows,10.0,16bd09c346ed3fd7ed45c3bb10d71816
36,1,"""",html-button-response,116,405353,0.0-17.0,61562615e886d11f2ea18ff1,6195a02e1d2e6fc9ed9c4f34,6195a170976d1e2ac343fd46,61562615e886d11f2ea18ff1,6195a02e1d2e6fc9ed9c4f34,6195a170976d1e2ac343fd46,EASY,"""","""","""","""",2071.199999988079,Block 4,0,"""","""","""","""","""","""","""",2021-11-18 00:42:29,186.35.53.166,"Mozilla/5.0 (Windows NT 10.0; Win64; x64) AppleWebKit/537.36 (KHTML, like Gecko) Chrome/94.0.4606.81 Safari/537.36 OPR/80.0.4170.91",WebKit,Opera,80.0.4170.91,Windows,10.0,16bd09c346ed3fd7ed45c3bb10d71816
36,1,"""",image-keyboard-response,117,408356,0.0-18.0-0.0,61562615e886d11f2ea18ff1,6195a02e1d2e6fc9ed9c4f34,6195a170976d1e2ac343fd46,61562615e886d11f2ea18ff1,6195a02e1d2e6fc9ed9c4f34,6195a170976d1e2ac343fd46,EASY,"""","""","""","""",null,img/fixation.png,null,fixation,"""","""","""","""","""",4,2021-11-18 00:42:29,186.35.53.166,"Mozilla/5.0 (Windows NT 10.0; Win64; x64) AppleWebKit/537.36 (KHTML, like Gecko) Chrome/94.0.4606.81 Safari/537.36 OPR/80.0.4170.91",WebKit,Opera,80.0.4170.91,Windows,10.0,16bd09c346ed3fd7ed45c3bb10d71816
36,1,"""",image-keyboard-response,118,409137,0.0-18.0-1.0,61562615e886d11f2ea18ff1,6195a02e1d2e6fc9ed9c4f34,6195a170976d1e2ac343fd46,61562615e886d11f2ea18ff1,6195a02e1d2e6fc9ed9c4f34,6195a170976d1e2ac343fd46,EASY,"""","""","""","""",777.7000000476837,img/flower_left.png,j,response,"""","""",j,1,"""",4,2021-11-18 00:42:29,186.35.53.166,"Mozilla/5.0 (Windows NT 10.0; Win64; x64) AppleWebKit/537.36 (KHTML, like Gecko) Chrome/94.0.4606.81 Safari/537.36 OPR/80.0.4170.91",WebKit,Opera,80.0.4170.91,Windows,10.0,16bd09c346ed3fd7ed45c3bb10d71816
36,1,"""",image-keyboard-response,119,410389,0.0-18.0-0.1,61562615e886d11f2ea18ff1,6195a02e1d2e6fc9ed9c4f34,6195a170976d1e2ac343fd46,61562615e886d11f2ea18ff1,6195a02e1d2e6fc9ed9c4f34,6195a170976d1e2ac343fd46,EASY,"""","""","""","""",null,img/fixation.png,null,fixation,"""","""","""","""","""",4,2021-11-18 00:42:29,186.35.53.166,"Mozilla/5.0 (Windows NT 10.0; Win64; x64) AppleWebKit/537.36 (KHTML, like Gecko) Chrome/94.0.4606.81 Safari/537.36 OPR/80.0.4170.91",WebKit,Opera,80.0.4170.91,Windows,10.0,16bd09c346ed3fd7ed45c3bb10d71816
36,1,"""",image-keyboard-response,120,411042,0.0-18.0-1.1,61562615e886d11f2ea18ff1,6195a02e1d2e6fc9ed9c4f34,6195a170976d1e2ac343fd46,61562615e886d11f2ea18ff1,6195a02e1d2e6fc9ed9c4f34,6195a170976d1e2ac343fd46,EASY,"""","""","""","""",651.1999999880791,img/flower_right.png,f,response,"""","""",f,1,"""",4,2021-11-18 00:42:29,186.35.53.166,"Mozilla/5.0 (Windows NT 10.0; Win64; x64) AppleWebKit/537.36 (KHTML, like Gecko) Chrome/94.0.4606.81 Safari/537.36 OPR/80.0.4170.91",WebKit,Opera,80.0.4170.91,Windows,10.0,16bd09c346ed3fd7ed45c3bb10d71816
36,1,"""",image-keyboard-response,121,412794,0.0-18.0-0.2,61562615e886d11f2ea18ff1,6195a02e1d2e6fc9ed9c4f34,6195a170976d1e2ac343fd46,61562615e886d11f2ea18ff1,6195a02e1d2e6fc9ed9c4f34,6195a170976d1e2ac343fd46,EASY,"""","""","""","""",null,img/fixation.png,null,fixation,"""","""","""","""","""",4,2021-11-18 00:42:29,186.35.53.166,"Mozilla/5.0 (Windows NT 10.0; Win64; x64) AppleWebKit/537.36 (KHTML, like Gecko) Chrome/94.0.4606.81 Safari/537.36 OPR/80.0.4170.91",WebKit,Opera,80.0.4170.91,Windows,10.0,16bd09c346ed3fd7ed45c3bb10d71816
36,1,"""",image-keyboard-response,122,413506,0.0-18.0-1.2,61562615e886d11f2ea18ff1,6195a02e1d2e6fc9ed9c4f34,6195a170976d1e2ac343fd46,61562615e886d11f2ea18ff1,6195a02e1d2e6fc9ed9c4f34,6195a170976d1e2ac343fd46,EASY,"""","""","""","""",711.3999999761581,img/flower_left.png,j,response,"""","""",j,1,"""",4,2021-11-18 00:42:29,186.35.53.166,"Mozilla/5.0 (Windows NT 10.0; Win64; x64) AppleWebKit/537.36 (KHTML, like Gecko) Chrome/94.0.4606.81 Safari/537.36 OPR/80.0.4170.91",WebKit,Opera,80.0.4170.91,Windows,10.0,16bd09c346ed3fd7ed45c3bb10d71816
36,1,"""",image-keyboard-response,123,414757,0.0-18.0-0.3,61562615e886d11f2ea18ff1,6195a02e1d2e6fc9ed9c4f34,6195a170976d1e2ac343fd46,61562615e886d11f2ea18ff1,6195a02e1d2e6fc9ed9c4f34,6195a170976d1e2ac343fd46,EASY,"""","""","""","""",null,img/fixation.png,null,fixation,"""","""","""","""","""",4,2021-11-18 00:42:29,186.35.53.166,"Mozilla/5.0 (Windows NT 10.0; Win64; x64) AppleWebKit/537.36 (KHTML, like Gecko) Chrome/94.0.4606.81 Safari/537.36 OPR/80.0.4170.91",WebKit,Opera,80.0.4170.91,Windows,10.0,16bd09c346ed3fd7ed45c3bb10d71816
36,1,"""",image-keyboard-response,124,415347,0.0-18.0-1.3,61562615e886d11f2ea18ff1,6195a02e1d2e6fc9ed9c4f34,6195a170976d1e2ac343fd46,61562615e886d11f2ea18ff1,6195a02e1d2e6fc9ed9c4f34,6195a170976d1e2ac343fd46,EASY,"""","""","""","""",588.5999999642372,img/flower_left.png,j,response,"""","""",j,1,"""",4,2021-11-18 00:42:29,186.35.53.166,"Mozilla/5.0 (Windows NT 10.0; Win64; x64) AppleWebKit/537.36 (KHTML, like Gecko) Chrome/94.0.4606.81 Safari/537.36 OPR/80.0.4170.91",WebKit,Opera,80.0.4170.91,Windows,10.0,16bd09c346ed3fd7ed45c3bb10d71816
36,1,"""",image-keyboard-response,125,416099,0.0-18.0-0.4,61562615e886d11f2ea18ff1,6195a02e1d2e6fc9ed9c4f34,6195a170976d1e2ac343fd46,61562615e886d11f2ea18ff1,6195a02e1d2e6fc9ed9c4f34,6195a170976d1e2ac343fd46,EASY,"""","""","""","""",null,img/fixation.png,null,fixation,"""","""","""","""","""",4,2021-11-18 00:42:29,186.35.53.166,"Mozilla/5.0 (Windows NT 10.0; Win64; x64) AppleWebKit/537.36 (KHTML, like Gecko) Chrome/94.0.4606.81 Safari/537.36 OPR/80.0.4170.91",WebKit,Opera,80.0.4170.91,Windows,10.0,16bd09c346ed3fd7ed45c3bb10d71816
36,1,"""",image-keyboard-response,126,416883,0.0-18.0-1.4,61562615e886d11f2ea18ff1,6195a02e1d2e6fc9ed9c4f34,6195a170976d1e2ac343fd46,61562615e886d11f2ea18ff1,6195a02e1d2e6fc9ed9c4f34,6195a170976d1e2ac343fd46,EASY,"""","""","""","""",782.8999999761581,img/flower_right.png,f,response,"""","""",f,1,"""",4,2021-11-18 00:42:29,186.35.53.166,"Mozilla/5.0 (Windows NT 10.0; Win64; x64) AppleWebKit/537.36 (KHTML, like Gecko) Chrome/94.0.4606.81 Safari/537.36 OPR/80.0.4170.91",WebKit,Opera,80.0.4170.91,Windows,10.0,16bd09c346ed3fd7ed45c3bb10d71816
36,1,"""",image-keyboard-response,127,418134,0.0-18.0-0.5,61562615e886d11f2ea18ff1,6195a02e1d2e6fc9ed9c4f34,6195a170976d1e2ac343fd46,61562615e886d11f2ea18ff1,6195a02e1d2e6fc9ed9c4f34,6195a170976d1e2ac343fd46,EASY,"""","""","""","""",null,img/fixation.png,null,fixation,"""","""","""","""","""",4,2021-11-18 00:42:29,186.35.53.166,"Mozilla/5.0 (Windows NT 10.0; Win64; x64) AppleWebKit/537.36 (KHTML, like Gecko) Chrome/94.0.4606.81 Safari/537.36 OPR/80.0.4170.91",WebKit,Opera,80.0.4170.91,Windows,10.0,16bd09c346ed3fd7ed45c3bb10d71816
36,1,"""",image-keyboard-response,128,418884,0.0-18.0-1.5,61562615e886d11f2ea18ff1,6195a02e1d2e6fc9ed9c4f34,6195a170976d1e2ac343fd46,61562615e886d11f2ea18ff1,6195a02e1d2e6fc9ed9c4f34,6195a170976d1e2ac343fd46,EASY,"""","""","""","""",748.0999999642372,img/heart_left.png,f,response,"""","""",f,1,"""",4,2021-11-18 00:42:29,186.35.53.166,"Mozilla/5.0 (Windows NT 10.0; Win64; x64) AppleWebKit/537.36 (KHTML, like Gecko) Chrome/94.0.4606.81 Safari/537.36 OPR/80.0.4170.91",WebKit,Opera,80.0.4170.91,Windows,10.0,16bd09c346ed3fd7ed45c3bb10d71816
36,1,"""",image-keyboard-response,129,419885,0.0-18.0-0.6,61562615e886d11f2ea18ff1,6195a02e1d2e6fc9ed9c4f34,6195a170976d1e2ac343fd46,61562615e886d11f2ea18ff1,6195a02e1d2e6fc9ed9c4f34,6195a170976d1e2ac343fd46,EASY,"""","""","""","""",null,img/fixation.png,null,fixation,"""","""","""","""","""",4,2021-11-18 00:42:29,186.35.53.166,"Mozilla/5.0 (Windows NT 10.0; Win64; x64) AppleWebKit/537.36 (KHTML, like Gecko) Chrome/94.0.4606.81 Safari/537.36 OPR/80.0.4170.91",WebKit,Opera,80.0.4170.91,Windows,10.0,16bd09c346ed3fd7ed45c3bb10d71816
36,1,"""",image-keyboard-response,130,420323,0.0-18.0-1.6,61562615e886d11f2ea18ff1,6195a02e1d2e6fc9ed9c4f34,6195a170976d1e2ac343fd46,61562615e886d11f2ea18ff1,6195a02e1d2e6fc9ed9c4f34,6195a170976d1e2ac343fd46,EASY,"""","""","""","""",436.80000001192093,img/heart_left.png,f,response,"""","""",f,1,"""",4,2021-11-18 00:42:29,186.35.53.166,"Mozilla/5.0 (Windows NT 10.0; Win64; x64) AppleWebKit/537.36 (KHTML, like Gecko) Chrome/94.0.4606.81 Safari/537.36 OPR/80.0.4170.91",WebKit,Opera,80.0.4170.91,Windows,10.0,16bd09c346ed3fd7ed45c3bb10d71816
36,1,"""",image-keyboard-response,131,421075,0.0-18.0-0.7,61562615e886d11f2ea18ff1,6195a02e1d2e6fc9ed9c4f34,6195a170976d1e2ac343fd46,61562615e886d11f2ea18ff1,6195a02e1d2e6fc9ed9c4f34,6195a170976d1e2ac343fd46,EASY,"""","""","""","""",null,img/fixation.png,null,fixation,"""","""","""","""","""",4,2021-11-18 00:42:29,186.35.53.166,"Mozilla/5.0 (Windows NT 10.0; Win64; x64) AppleWebKit/537.36 (KHTML, like Gecko) Chrome/94.0.4606.81 Safari/537.36 OPR/80.0.4170.91",WebKit,Opera,80.0.4170.91,Windows,10.0,16bd09c346ed3fd7ed45c3bb10d71816
36,1,"""",image-keyboard-response,132,421668,0.0-18.0-1.7,61562615e886d11f2ea18ff1,6195a02e1d2e6fc9ed9c4f34,6195a170976d1e2ac343fd46,61562615e886d11f2ea18ff1,6195a02e1d2e6fc9ed9c4f34,6195a170976d1e2ac343fd46,EASY,"""","""","""","""",589.1999999880791,img/flower_left.png,j,response,"""","""",j,1,"""",4,2021-11-18 00:42:29,186.35.53.166,"Mozilla/5.0 (Windows NT 10.0; Win64; x64) AppleWebKit/537.36 (KHTML, like Gecko) Chrome/94.0.4606.81 Safari/537.36 OPR/80.0.4170.91",WebKit,Opera,80.0.4170.91,Windows,10.0,16bd09c346ed3fd7ed45c3bb10d71816
36,1,"""",image-keyboard-response,133,422170,0.0-18.0-0.8,61562615e886d11f2ea18ff1,6195a02e1d2e6fc9ed9c4f34,6195a170976d1e2ac343fd46,61562615e886d11f2ea18ff1,6195a02e1d2e6fc9ed9c4f34,6195a170976d1e2ac343fd46,EASY,"""","""","""","""",null,img/fixation.png,null,fixation,"""","""","""","""","""",4,2021-11-18 00:42:29,186.35.53.166,"Mozilla/5.0 (Windows NT 10.0; Win64; x64) AppleWebKit/537.36 (KHTML, like Gecko) Chrome/94.0.4606.81 Safari/537.36 OPR/80.0.4170.91",WebKit,Opera,80.0.4170.91,Windows,10.0,16bd09c346ed3fd7ed45c3bb10d71816
36,1,"""",image-keyboard-response,134,423076,0.0-18.0-1.8,61562615e886d11f2ea18ff1,6195a02e1d2e6fc9ed9c4f34,6195a170976d1e2ac343fd46,61562615e886d11f2ea18ff1,6195a02e1d2e6fc9ed9c4f34,6195a170976d1e2ac343fd46,EASY,"""","""","""","""",904.6999999880791,img/flower_right.png,f,response,"""","""",f,1,"""",4,2021-11-18 00:42:29,186.35.53.166,"Mozilla/5.0 (Windows NT 10.0; Win64; x64) AppleWebKit/537.36 (KHTML, like Gecko) Chrome/94.0.4606.81 Safari/537.36 OPR/80.0.4170.91",WebKit,Opera,80.0.4170.91,Windows,10.0,16bd09c346ed3fd7ed45c3bb10d71816
36,1,"""",image-keyboard-response,135,423827,0.0-18.0-0.9,61562615e886d11f2ea18ff1,6195a02e1d2e6fc9ed9c4f34,6195a170976d1e2ac343fd46,61562615e886d11f2ea18ff1,6195a02e1d2e6fc9ed9c4f34,6195a170976d1e2ac343fd46,EASY,"""","""","""","""",null,img/fixation.png,null,fixation,"""","""","""","""","""",4,2021-11-18 00:42:29,186.35.53.166,"Mozilla/5.0 (Windows NT 10.0; Win64; x64) AppleWebKit/537.36 (KHTML, like Gecko) Chrome/94.0.4606.81 Safari/537.36 OPR/80.0.4170.91",WebKit,Opera,80.0.4170.91,Windows,10.0,16bd09c346ed3fd7ed45c3bb10d71816
36,1,"""",image-keyboard-response,136,424340,0.0-18.0-1.9,61562615e886d11f2ea18ff1,6195a02e1d2e6fc9ed9c4f34,6195a170976d1e2ac343fd46,61562615e886d11f2ea18ff1,6195a02e1d2e6fc9ed9c4f34,6195a170976d1e2ac343fd46,EASY,"""","""","""","""",511.89999997615814,img/flower_left.png,j,response,"""","""",j,1,"""",4,2021-11-18 00:42:29,186.35.53.166,"Mozilla/5.0 (Windows NT 10.0; Win64; x64) AppleWebKit/537.36 (KHTML, like Gecko) Chrome/94.0.4606.81 Safari/537.36 OPR/80.0.4170.91",WebKit,Opera,80.0.4170.91,Windows,10.0,16bd09c346ed3fd7ed45c3bb10d71816
36,1,"""",html-keyboard-response,137,426964,0.0-19.0,61562615e886d11f2ea18ff1,6195a02e1d2e6fc9ed9c4f34,6195a170976d1e2ac343fd46,61562615e886d11f2ea18ff1,6195a02e1d2e6fc9ed9c4f34,6195a170976d1e2ac343fd46,EASY,"""","""","""","""",2623.300000011921,"<p>You responded correctly on 100% of the trials.</p>
      <p>Your average response time was 670ms.</p>
      <p>Press any key to finish the cognitive experiment!</p>",f,debrief,"""","""","""","""","""","""",2021-11-18 00:42:29,186.35.53.166,"Mozilla/5.0 (Windows NT 10.0; Win64; x64) AppleWebKit/537.36 (KHTML, like Gecko) Chrome/94.0.4606.81 Safari/537.36 OPR/80.0.4170.91",WebKit,Opera,80.0.4170.91,Windows,10.0,16bd09c346ed3fd7ed45c3bb10d71816
36,1,"""",html-button-response,138,432013,0.0-20.0,61562615e886d11f2ea18ff1,6195a02e1d2e6fc9ed9c4f34,6195a170976d1e2ac343fd46,61562615e886d11f2ea18ff1,6195a02e1d2e6fc9ed9c4f34,6195a170976d1e2ac343fd46,EASY,"""","""","""","""",5048.099999964237,"<p>Thank you for your participation! </p><p>The last thing will be a series of questions to capture demographic information.<p><p>When you are ready to answer a few questions, please press START.</p>",0,"""","""","""","""","""","""","""",2021-11-18 00:42:29,186.35.53.166,"Mozilla/5.0 (Windows NT 10.0; Win64; x64) AppleWebKit/537.36 (KHTML, like Gecko) Chrome/94.0.4606.81 Safari/537.36 OPR/80.0.4170.91",WebKit,Opera,80.0.4170.91,Windows,10.0,16bd09c346ed3fd7ed45c3bb10d71816
36,1,"""",survey-text,139,475339,0.0-21.0,61562615e886d11f2ea18ff1,6195a02e1d2e6fc9ed9c4f34,6195a170976d1e2ac343fd46,61562615e886d11f2ea18ff1,6195a02e1d2e6fc9ed9c4f34,6195a170976d1e2ac343fd46,EASY,"""","""","""","""",41569.200000047684,"""","{""Q0"":""28"",""Q1"":""10/06/1993"",""Q2"":""Latino""}",age,"""","""","""","""","""","""",2021-11-18 00:42:29,186.35.53.166,"Mozilla/5.0 (Windows NT 10.0; Win64; x64) AppleWebKit/537.36 (KHTML, like Gecko) Chrome/94.0.4606.81 Safari/537.36 OPR/80.0.4170.91",WebKit,Opera,80.0.4170.91,Windows,10.0,16bd09c346ed3fd7ed45c3bb10d71816
36,1,"""",survey-multi-choice,140,493135,0.0-22.0,61562615e886d11f2ea18ff1,6195a02e1d2e6fc9ed9c4f34,6195a170976d1e2ac343fd46,61562615e886d11f2ea18ff1,6195a02e1d2e6fc9ed9c4f34,6195a170976d1e2ac343fd46,EASY,"""","""","""","""",17793.80000001192,"""","{""Q0"":""High school"",""Q1"":""Non-permanent full-time employment""}",ses,"[0,1]","""","""","""","""","""",2021-11-18 00:42:29,186.35.53.166,"Mozilla/5.0 (Windows NT 10.0; Win64; x64) AppleWebKit/537.36 (KHTML, like Gecko) Chrome/94.0.4606.81 Safari/537.36 OPR/80.0.4170.91",WebKit,Opera,80.0.4170.91,Windows,10.0,16bd09c346ed3fd7ed45c3bb10d71816
36,1,"""",survey-multi-choice,141,518985,0.0-23.0,61562615e886d11f2ea18ff1,6195a02e1d2e6fc9ed9c4f34,6195a170976d1e2ac343fd46,61562615e886d11f2ea18ff1,6195a02e1d2e6fc9ed9c4f34,6195a170976d1e2ac343fd46,EASY,"""","""","""","""",25845.600000023842,"""","{""Q0"":""5000""}",income,[0],"""","""","""","""","""",2021-11-18 00:42:29,186.35.53.166,"Mozilla/5.0 (Windows NT 10.0; Win64; x64) AppleWebKit/537.36 (KHTML, like Gecko) Chrome/94.0.4606.81 Safari/537.36 OPR/80.0.4170.91",WebKit,Opera,80.0.4170.91,Windows,10.0,16bd09c346ed3fd7ed45c3bb10d71816
36,1,"""",survey-multi-choice,142,530155,0.0-24.0,61562615e886d11f2ea18ff1,6195a02e1d2e6fc9ed9c4f34,6195a170976d1e2ac343fd46,61562615e886d11f2ea18ff1,6195a02e1d2e6fc9ed9c4f34,6195a170976d1e2ac343fd46,EASY,"""","""","""","""",11168.199999988079,"""","{""Q0"":""9""}",household_size,[0],"""","""","""","""","""",2021-11-18 00:42:29,186.35.53.166,"Mozilla/5.0 (Windows NT 10.0; Win64; x64) AppleWebKit/537.36 (KHTML, like Gecko) Chrome/94.0.4606.81 Safari/537.36 OPR/80.0.4170.91",WebKit,Opera,80.0.4170.91,Windows,10.0,16bd09c346ed3fd7ed45c3bb10d71816
36,1,"""",html-button-response,143,532683,0.0-25.0,61562615e886d11f2ea18ff1,6195a02e1d2e6fc9ed9c4f34,6195a170976d1e2ac343fd46,61562615e886d11f2ea18ff1,6195a02e1d2e6fc9ed9c4f34,6195a170976d1e2ac343fd46,EASY,"""","""","""","""",2523.099999964237,<p>Thanks! You have finished the entire study.</p><p>Please press FINISH to save your data and return to Prolific for compensation.</p>,0,"""","""","""","""","""","""","""",2021-11-18 00:42:29,186.35.53.166,"Mozilla/5.0 (Windows NT 10.0; Win64; x64) AppleWebKit/537.36 (KHTML, like Gecko) Chrome/94.0.4606.81 Safari/537.36 OPR/80.0.4170.91",WebKit,Opera,80.0.4170.91,Windows,10.0,16bd09c346ed3fd7ed45c3bb10d71816
37,1,true,fullscreen,0,8397,0.0-0.0,60fbc53a81120344612e0d08,6195a02e1d2e6fc9ed9c4f34,6195a2d86643f04d29353011,60fbc53a81120344612e0d08,6195a02e1d2e6fc9ed9c4f34,6195a2d86643f04d29353011,EASY,"""","""","""","""","""","""","""","""","""","""","""","""","""","""",2021-11-18 00:48:26,84.91.248.42,"Mozilla/5.0 (Windows NT 10.0; Win64; x64) AppleWebKit/537.36 (KHTML, like Gecko) Chrome/96.0.4664.45 Safari/537.36",WebKit,Chrome,96.0.4664.45,Windows,10.0,16bd09c346ed3fd7ed45c3bb10d71816
37,1,true,preload,1,12061,0.0-1.0,60fbc53a81120344612e0d08,6195a02e1d2e6fc9ed9c4f34,6195a2d86643f04d29353011,60fbc53a81120344612e0d08,6195a02e1d2e6fc9ed9c4f34,6195a2d86643f04d29353011,EASY,false,[],[],[],"""","""","""","""","""","""","""","""","""","""",2021-11-18 00:48:26,84.91.248.42,"Mozilla/5.0 (Windows NT 10.0; Win64; x64) AppleWebKit/537.36 (KHTML, like Gecko) Chrome/96.0.4664.45 Safari/537.36",WebKit,Chrome,96.0.4664.45,Windows,10.0,16bd09c346ed3fd7ed45c3bb10d71816
37,1,"""",html-button-response,2,14689,0.0-2.0,60fbc53a81120344612e0d08,6195a02e1d2e6fc9ed9c4f34,6195a2d86643f04d29353011,60fbc53a81120344612e0d08,6195a02e1d2e6fc9ed9c4f34,6195a2d86643f04d29353011,EASY,"""","""","""","""",2625.7999999523163,<p>Welcome! Thank you so much for participating in this study. Press START to begin.</p><br>,0,"""","""","""","""","""","""","""",2021-11-18 00:48:26,84.91.248.42,"Mozilla/5.0 (Windows NT 10.0; Win64; x64) AppleWebKit/537.36 (KHTML, like Gecko) Chrome/96.0.4664.45 Safari/537.36",WebKit,Chrome,96.0.4664.45,Windows,10.0,16bd09c346ed3fd7ed45c3bb10d71816
37,1,"""",html-button-response,3,39767,0.0-3.0,60fbc53a81120344612e0d08,6195a02e1d2e6fc9ed9c4f34,6195a2d86643f04d29353011,60fbc53a81120344612e0d08,6195a02e1d2e6fc9ed9c4f34,6195a2d86643f04d29353011,EASY,"""","""","""","""",25077.299999952316,"<p>First, you will review a series of hypothetical scenarios each related to finances</p><br><p>Please think about each scenario carefully for approximately <strong>one minute</strong>.</p><br><p>Please reflect and process the scenario as if it were actually happening. Questions will be there to help guide your thinking.</p><p>When you are ready to begin, please press REVIEW to begin the study.",0,"""","""","""","""","""","""","""",2021-11-18 00:48:26,84.91.248.42,"Mozilla/5.0 (Windows NT 10.0; Win64; x64) AppleWebKit/537.36 (KHTML, like Gecko) Chrome/96.0.4664.45 Safari/537.36",WebKit,Chrome,96.0.4664.45,Windows,10.0,16bd09c346ed3fd7ed45c3bb10d71816
37,1,"""",image-keyboard-response,4,42028,0.0-4.0-0.0,60fbc53a81120344612e0d08,6195a02e1d2e6fc9ed9c4f34,6195a2d86643f04d29353011,60fbc53a81120344612e0d08,6195a02e1d2e6fc9ed9c4f34,6195a2d86643f04d29353011,EASY,"""","""","""","""",null,img/fixation.png,null,fixation,"""","""","""","""","""","""",2021-11-18 00:48:26,84.91.248.42,"Mozilla/5.0 (Windows NT 10.0; Win64; x64) AppleWebKit/537.36 (KHTML, like Gecko) Chrome/96.0.4664.45 Safari/537.36",WebKit,Chrome,96.0.4664.45,Windows,10.0,16bd09c346ed3fd7ed45c3bb10d71816
37,1,"""",image-keyboard-response,5,72030,0.0-4.0-1.0,60fbc53a81120344612e0d08,6195a02e1d2e6fc9ed9c4f34,6195a2d86643f04d29353011,60fbc53a81120344612e0d08,6195a02e1d2e6fc9ed9c4f34,6195a2d86643f04d29353011,EASY,"""","""","""","""",null,scarcity/easy/scenario2.png,null,"""","""","""","""","""","""","""",2021-11-18 00:48:26,84.91.248.42,"Mozilla/5.0 (Windows NT 10.0; Win64; x64) AppleWebKit/537.36 (KHTML, like Gecko) Chrome/96.0.4664.45 Safari/537.36",WebKit,Chrome,96.0.4664.45,Windows,10.0,16bd09c346ed3fd7ed45c3bb10d71816
37,1,"""",survey-multi-choice,6,82534,0.0-4.0-2.0,60fbc53a81120344612e0d08,6195a02e1d2e6fc9ed9c4f34,6195a2d86643f04d29353011,60fbc53a81120344612e0d08,6195a02e1d2e6fc9ed9c4f34,6195a2d86643f04d29353011,EASY,"""","""","""","""",10500.600000023842,"""","{""Q0"":""Yes"",""Q1"":""Yes""}","""","[0,1]","""","""","""","""","""",2021-11-18 00:48:26,84.91.248.42,"Mozilla/5.0 (Windows NT 10.0; Win64; x64) AppleWebKit/537.36 (KHTML, like Gecko) Chrome/96.0.4664.45 Safari/537.36",WebKit,Chrome,96.0.4664.45,Windows,10.0,16bd09c346ed3fd7ed45c3bb10d71816
37,1,"""",image-keyboard-response,7,83286,0.0-4.0-0.1,60fbc53a81120344612e0d08,6195a02e1d2e6fc9ed9c4f34,6195a2d86643f04d29353011,60fbc53a81120344612e0d08,6195a02e1d2e6fc9ed9c4f34,6195a2d86643f04d29353011,EASY,"""","""","""","""",null,img/fixation.png,null,fixation,"""","""","""","""","""","""",2021-11-18 00:48:26,84.91.248.42,"Mozilla/5.0 (Windows NT 10.0; Win64; x64) AppleWebKit/537.36 (KHTML, like Gecko) Chrome/96.0.4664.45 Safari/537.36",WebKit,Chrome,96.0.4664.45,Windows,10.0,16bd09c346ed3fd7ed45c3bb10d71816
37,1,"""",image-keyboard-response,8,113289,0.0-4.0-1.1,60fbc53a81120344612e0d08,6195a02e1d2e6fc9ed9c4f34,6195a2d86643f04d29353011,60fbc53a81120344612e0d08,6195a02e1d2e6fc9ed9c4f34,6195a2d86643f04d29353011,EASY,"""","""","""","""",null,scarcity/easy/scenario1.png,null,"""","""","""","""","""","""","""",2021-11-18 00:48:26,84.91.248.42,"Mozilla/5.0 (Windows NT 10.0; Win64; x64) AppleWebKit/537.36 (KHTML, like Gecko) Chrome/96.0.4664.45 Safari/537.36",WebKit,Chrome,96.0.4664.45,Windows,10.0,16bd09c346ed3fd7ed45c3bb10d71816
37,1,"""",survey-multi-choice,9,132817,0.0-4.0-2.1,60fbc53a81120344612e0d08,6195a02e1d2e6fc9ed9c4f34,6195a2d86643f04d29353011,60fbc53a81120344612e0d08,6195a02e1d2e6fc9ed9c4f34,6195a2d86643f04d29353011,EASY,"""","""","""","""",19526.600000023842,"""","{""Q0"":""Yes"",""Q1"":""No""}","""","[0,1]","""","""","""","""","""",2021-11-18 00:48:26,84.91.248.42,"Mozilla/5.0 (Windows NT 10.0; Win64; x64) AppleWebKit/537.36 (KHTML, like Gecko) Chrome/96.0.4664.45 Safari/537.36",WebKit,Chrome,96.0.4664.45,Windows,10.0,16bd09c346ed3fd7ed45c3bb10d71816
37,1,"""",image-keyboard-response,10,134320,0.0-4.0-0.2,60fbc53a81120344612e0d08,6195a02e1d2e6fc9ed9c4f34,6195a2d86643f04d29353011,60fbc53a81120344612e0d08,6195a02e1d2e6fc9ed9c4f34,6195a2d86643f04d29353011,EASY,"""","""","""","""",null,img/fixation.png,null,fixation,"""","""","""","""","""","""",2021-11-18 00:48:26,84.91.248.42,"Mozilla/5.0 (Windows NT 10.0; Win64; x64) AppleWebKit/537.36 (KHTML, like Gecko) Chrome/96.0.4664.45 Safari/537.36",WebKit,Chrome,96.0.4664.45,Windows,10.0,16bd09c346ed3fd7ed45c3bb10d71816
37,1,"""",image-keyboard-response,11,164322,0.0-4.0-1.2,60fbc53a81120344612e0d08,6195a02e1d2e6fc9ed9c4f34,6195a2d86643f04d29353011,60fbc53a81120344612e0d08,6195a02e1d2e6fc9ed9c4f34,6195a2d86643f04d29353011,EASY,"""","""","""","""",null,scarcity/easy/scenario4.png,null,"""","""","""","""","""","""","""",2021-11-18 00:48:26,84.91.248.42,"Mozilla/5.0 (Windows NT 10.0; Win64; x64) AppleWebKit/537.36 (KHTML, like Gecko) Chrome/96.0.4664.45 Safari/537.36",WebKit,Chrome,96.0.4664.45,Windows,10.0,16bd09c346ed3fd7ed45c3bb10d71816
37,1,"""",survey-multi-choice,12,169667,0.0-4.0-2.2,60fbc53a81120344612e0d08,6195a02e1d2e6fc9ed9c4f34,6195a2d86643f04d29353011,60fbc53a81120344612e0d08,6195a02e1d2e6fc9ed9c4f34,6195a2d86643f04d29353011,EASY,"""","""","""","""",5339.399999976158,"""","{""Q0"":""Yes"",""Q1"":""Yes""}","""","[0,1]","""","""","""","""","""",2021-11-18 00:48:26,84.91.248.42,"Mozilla/5.0 (Windows NT 10.0; Win64; x64) AppleWebKit/537.36 (KHTML, like Gecko) Chrome/96.0.4664.45 Safari/537.36",WebKit,Chrome,96.0.4664.45,Windows,10.0,16bd09c346ed3fd7ed45c3bb10d71816
37,1,"""",image-keyboard-response,13,170670,0.0-4.0-0.3,60fbc53a81120344612e0d08,6195a02e1d2e6fc9ed9c4f34,6195a2d86643f04d29353011,60fbc53a81120344612e0d08,6195a02e1d2e6fc9ed9c4f34,6195a2d86643f04d29353011,EASY,"""","""","""","""",null,img/fixation.png,null,fixation,"""","""","""","""","""","""",2021-11-18 00:48:26,84.91.248.42,"Mozilla/5.0 (Windows NT 10.0; Win64; x64) AppleWebKit/537.36 (KHTML, like Gecko) Chrome/96.0.4664.45 Safari/537.36",WebKit,Chrome,96.0.4664.45,Windows,10.0,16bd09c346ed3fd7ed45c3bb10d71816
37,1,"""",image-keyboard-response,14,200671,0.0-4.0-1.3,60fbc53a81120344612e0d08,6195a02e1d2e6fc9ed9c4f34,6195a2d86643f04d29353011,60fbc53a81120344612e0d08,6195a02e1d2e6fc9ed9c4f34,6195a2d86643f04d29353011,EASY,"""","""","""","""",null,scarcity/easy/scenario3.png,null,"""","""","""","""","""","""","""",2021-11-18 00:48:26,84.91.248.42,"Mozilla/5.0 (Windows NT 10.0; Win64; x64) AppleWebKit/537.36 (KHTML, like Gecko) Chrome/96.0.4664.45 Safari/537.36",WebKit,Chrome,96.0.4664.45,Windows,10.0,16bd09c346ed3fd7ed45c3bb10d71816
37,1,"""",survey-multi-choice,15,205736,0.0-4.0-2.3,60fbc53a81120344612e0d08,6195a02e1d2e6fc9ed9c4f34,6195a2d86643f04d29353011,60fbc53a81120344612e0d08,6195a02e1d2e6fc9ed9c4f34,6195a2d86643f04d29353011,EASY,"""","""","""","""",5064.300000071526,"""","{""Q0"":""Yes"",""Q1"":""Yes""}","""","[0,1]","""","""","""","""","""",2021-11-18 00:48:26,84.91.248.42,"Mozilla/5.0 (Windows NT 10.0; Win64; x64) AppleWebKit/537.36 (KHTML, like Gecko) Chrome/96.0.4664.45 Safari/537.36",WebKit,Chrome,96.0.4664.45,Windows,10.0,16bd09c346ed3fd7ed45c3bb10d71816
37,1,"""",html-button-response,16,211384,0.0-5.0,60fbc53a81120344612e0d08,6195a02e1d2e6fc9ed9c4f34,6195a2d86643f04d29353011,60fbc53a81120344612e0d08,6195a02e1d2e6fc9ed9c4f34,6195a2d86643f04d29353011,EASY,"""","""","""","""",5646.899999976158,"<p>You have finished reviewing each scenario!</p><p>We will now begin the cognitive experiment.<p><p>When you are ready to begin the cognitive game, please press START.</p>",0,"""","""","""","""","""","""","""",2021-11-18 00:48:26,84.91.248.42,"Mozilla/5.0 (Windows NT 10.0; Win64; x64) AppleWebKit/537.36 (KHTML, like Gecko) Chrome/96.0.4664.45 Safari/537.36",WebKit,Chrome,96.0.4664.45,Windows,10.0,16bd09c346ed3fd7ed45c3bb10d71816
37,1,"""",instructions,17,256939,0.0-6.0-0.0,60fbc53a81120344612e0d08,6195a02e1d2e6fc9ed9c4f34,6195a2d86643f04d29353011,60fbc53a81120344612e0d08,6195a02e1d2e6fc9ed9c4f34,6195a2d86643f04d29353011,EASY,"""","""","""","""",43804,"""","""","""","""","[{""page_index"":0,""viewing_time"":18370.100000023842},{""page_index"":1,""viewing_time"":6622.799999952316},{""page_index"":2,""viewing_time"":3656.8000000715256},{""page_index"":3,""viewing_time"":3280.2999999523163},{""page_index"":4,""viewing_time"":4789.399999976158},{""page_index"":5,""viewing_time"":4691.700000047684},{""page_index"":6,""viewing_time"":2392.100000023842}]","""","""","""","""",2021-11-18 00:48:26,84.91.248.42,"Mozilla/5.0 (Windows NT 10.0; Win64; x64) AppleWebKit/537.36 (KHTML, like Gecko) Chrome/96.0.4664.45 Safari/537.36",WebKit,Chrome,96.0.4664.45,Windows,10.0,16bd09c346ed3fd7ed45c3bb10d71816
37,1,"""",image-button-response,18,273559,0.0-6.0-1.0,60fbc53a81120344612e0d08,6195a02e1d2e6fc9ed9c4f34,6195a2d86643f04d29353011,60fbc53a81120344612e0d08,6195a02e1d2e6fc9ed9c4f34,6195a2d86643f04d29353011,EASY,"""","""","""","""",16618.600000023842,begin_practice.png,0,"""","""","""","""","""","""","""",2021-11-18 00:48:26,84.91.248.42,"Mozilla/5.0 (Windows NT 10.0; Win64; x64) AppleWebKit/537.36 (KHTML, like Gecko) Chrome/96.0.4664.45 Safari/537.36",WebKit,Chrome,96.0.4664.45,Windows,10.0,16bd09c346ed3fd7ed45c3bb10d71816
37,1,"""",image-keyboard-response,19,277075,0.0-6.0-2.0-0.0,60fbc53a81120344612e0d08,6195a02e1d2e6fc9ed9c4f34,6195a2d86643f04d29353011,60fbc53a81120344612e0d08,6195a02e1d2e6fc9ed9c4f34,6195a2d86643f04d29353011,EASY,"""","""","""","""",null,img/fixation.png,null,fixation,"""","""","""","""","""","""",2021-11-18 00:48:26,84.91.248.42,"Mozilla/5.0 (Windows NT 10.0; Win64; x64) AppleWebKit/537.36 (KHTML, like Gecko) Chrome/96.0.4664.45 Safari/537.36",WebKit,Chrome,96.0.4664.45,Windows,10.0,16bd09c346ed3fd7ed45c3bb10d71816
37,1,"""",image-keyboard-response,20,277923,0.0-6.0-2.0-1.0,60fbc53a81120344612e0d08,6195a02e1d2e6fc9ed9c4f34,6195a2d86643f04d29353011,60fbc53a81120344612e0d08,6195a02e1d2e6fc9ed9c4f34,6195a2d86643f04d29353011,EASY,"""","""","""","""",846.8999999761581,img/flower_left.png,j,practice,"""","""",j,1,"""","""",2021-11-18 00:48:26,84.91.248.42,"Mozilla/5.0 (Windows NT 10.0; Win64; x64) AppleWebKit/537.36 (KHTML, like Gecko) Chrome/96.0.4664.45 Safari/537.36",WebKit,Chrome,96.0.4664.45,Windows,10.0,16bd09c346ed3fd7ed45c3bb10d71816
37,1,"""",html-keyboard-response,21,278924,0.0-6.0-2.0-2.0,60fbc53a81120344612e0d08,6195a02e1d2e6fc9ed9c4f34,6195a2d86643f04d29353011,60fbc53a81120344612e0d08,6195a02e1d2e6fc9ed9c4f34,6195a2d86643f04d29353011,EASY,"""","""","""","""",null,CORRECT!,null,"""","""","""","""","""",feedback,"""",2021-11-18 00:48:26,84.91.248.42,"Mozilla/5.0 (Windows NT 10.0; Win64; x64) AppleWebKit/537.36 (KHTML, like Gecko) Chrome/96.0.4664.45 Safari/537.36",WebKit,Chrome,96.0.4664.45,Windows,10.0,16bd09c346ed3fd7ed45c3bb10d71816
37,1,"""",image-keyboard-response,22,279929,0.0-6.0-2.0-0.1,60fbc53a81120344612e0d08,6195a02e1d2e6fc9ed9c4f34,6195a2d86643f04d29353011,60fbc53a81120344612e0d08,6195a02e1d2e6fc9ed9c4f34,6195a2d86643f04d29353011,EASY,"""","""","""","""",null,img/fixation.png,null,fixation,"""","""","""","""","""","""",2021-11-18 00:48:26,84.91.248.42,"Mozilla/5.0 (Windows NT 10.0; Win64; x64) AppleWebKit/537.36 (KHTML, like Gecko) Chrome/96.0.4664.45 Safari/537.36",WebKit,Chrome,96.0.4664.45,Windows,10.0,16bd09c346ed3fd7ed45c3bb10d71816
37,1,"""",image-keyboard-response,23,280491,0.0-6.0-2.0-1.1,60fbc53a81120344612e0d08,6195a02e1d2e6fc9ed9c4f34,6195a2d86643f04d29353011,60fbc53a81120344612e0d08,6195a02e1d2e6fc9ed9c4f34,6195a2d86643f04d29353011,EASY,"""","""","""","""",560.8999999761581,img/flower_left.png,j,practice,"""","""",j,1,"""","""",2021-11-18 00:48:26,84.91.248.42,"Mozilla/5.0 (Windows NT 10.0; Win64; x64) AppleWebKit/537.36 (KHTML, like Gecko) Chrome/96.0.4664.45 Safari/537.36",WebKit,Chrome,96.0.4664.45,Windows,10.0,16bd09c346ed3fd7ed45c3bb10d71816
37,1,"""",html-keyboard-response,24,281493,0.0-6.0-2.0-2.1,60fbc53a81120344612e0d08,6195a02e1d2e6fc9ed9c4f34,6195a2d86643f04d29353011,60fbc53a81120344612e0d08,6195a02e1d2e6fc9ed9c4f34,6195a2d86643f04d29353011,EASY,"""","""","""","""",null,CORRECT!,null,"""","""","""","""","""",feedback,"""",2021-11-18 00:48:26,84.91.248.42,"Mozilla/5.0 (Windows NT 10.0; Win64; x64) AppleWebKit/537.36 (KHTML, like Gecko) Chrome/96.0.4664.45 Safari/537.36",WebKit,Chrome,96.0.4664.45,Windows,10.0,16bd09c346ed3fd7ed45c3bb10d71816
37,1,"""",image-keyboard-response,25,282494,0.0-6.0-2.0-0.2,60fbc53a81120344612e0d08,6195a02e1d2e6fc9ed9c4f34,6195a2d86643f04d29353011,60fbc53a81120344612e0d08,6195a02e1d2e6fc9ed9c4f34,6195a2d86643f04d29353011,EASY,"""","""","""","""",null,img/fixation.png,null,fixation,"""","""","""","""","""","""",2021-11-18 00:48:26,84.91.248.42,"Mozilla/5.0 (Windows NT 10.0; Win64; x64) AppleWebKit/537.36 (KHTML, like Gecko) Chrome/96.0.4664.45 Safari/537.36",WebKit,Chrome,96.0.4664.45,Windows,10.0,16bd09c346ed3fd7ed45c3bb10d71816
37,1,"""",image-keyboard-response,26,282951,0.0-6.0-2.0-1.2,60fbc53a81120344612e0d08,6195a02e1d2e6fc9ed9c4f34,6195a2d86643f04d29353011,60fbc53a81120344612e0d08,6195a02e1d2e6fc9ed9c4f34,6195a2d86643f04d29353011,EASY,"""","""","""","""",455.2000000476837,img/heart_left.png,f,practice,"""","""",f,1,"""","""",2021-11-18 00:48:26,84.91.248.42,"Mozilla/5.0 (Windows NT 10.0; Win64; x64) AppleWebKit/537.36 (KHTML, like Gecko) Chrome/96.0.4664.45 Safari/537.36",WebKit,Chrome,96.0.4664.45,Windows,10.0,16bd09c346ed3fd7ed45c3bb10d71816
37,1,"""",html-keyboard-response,27,283952,0.0-6.0-2.0-2.2,60fbc53a81120344612e0d08,6195a02e1d2e6fc9ed9c4f34,6195a2d86643f04d29353011,60fbc53a81120344612e0d08,6195a02e1d2e6fc9ed9c4f34,6195a2d86643f04d29353011,EASY,"""","""","""","""",null,CORRECT!,null,"""","""","""","""","""",feedback,"""",2021-11-18 00:48:26,84.91.248.42,"Mozilla/5.0 (Windows NT 10.0; Win64; x64) AppleWebKit/537.36 (KHTML, like Gecko) Chrome/96.0.4664.45 Safari/537.36",WebKit,Chrome,96.0.4664.45,Windows,10.0,16bd09c346ed3fd7ed45c3bb10d71816
37,1,"""",image-keyboard-response,28,285453,0.0-6.0-2.0-0.3,60fbc53a81120344612e0d08,6195a02e1d2e6fc9ed9c4f34,6195a2d86643f04d29353011,60fbc53a81120344612e0d08,6195a02e1d2e6fc9ed9c4f34,6195a2d86643f04d29353011,EASY,"""","""","""","""",null,img/fixation.png,null,fixation,"""","""","""","""","""","""",2021-11-18 00:48:26,84.91.248.42,"Mozilla/5.0 (Windows NT 10.0; Win64; x64) AppleWebKit/537.36 (KHTML, like Gecko) Chrome/96.0.4664.45 Safari/537.36",WebKit,Chrome,96.0.4664.45,Windows,10.0,16bd09c346ed3fd7ed45c3bb10d71816
37,1,"""",image-keyboard-response,29,285899,0.0-6.0-2.0-1.3,60fbc53a81120344612e0d08,6195a02e1d2e6fc9ed9c4f34,6195a2d86643f04d29353011,60fbc53a81120344612e0d08,6195a02e1d2e6fc9ed9c4f34,6195a2d86643f04d29353011,EASY,"""","""","""","""",444.7999999523163,img/heart_left.png,f,practice,"""","""",f,1,"""","""",2021-11-18 00:48:26,84.91.248.42,"Mozilla/5.0 (Windows NT 10.0; Win64; x64) AppleWebKit/537.36 (KHTML, like Gecko) Chrome/96.0.4664.45 Safari/537.36",WebKit,Chrome,96.0.4664.45,Windows,10.0,16bd09c346ed3fd7ed45c3bb10d71816
37,1,"""",html-keyboard-response,30,286900,0.0-6.0-2.0-2.3,60fbc53a81120344612e0d08,6195a02e1d2e6fc9ed9c4f34,6195a2d86643f04d29353011,60fbc53a81120344612e0d08,6195a02e1d2e6fc9ed9c4f34,6195a2d86643f04d29353011,EASY,"""","""","""","""",null,CORRECT!,null,"""","""","""","""","""",feedback,"""",2021-11-18 00:48:26,84.91.248.42,"Mozilla/5.0 (Windows NT 10.0; Win64; x64) AppleWebKit/537.36 (KHTML, like Gecko) Chrome/96.0.4664.45 Safari/537.36",WebKit,Chrome,96.0.4664.45,Windows,10.0,16bd09c346ed3fd7ed45c3bb10d71816
37,1,"""",image-keyboard-response,31,287152,0.0-6.0-2.0-0.4,60fbc53a81120344612e0d08,6195a02e1d2e6fc9ed9c4f34,6195a2d86643f04d29353011,60fbc53a81120344612e0d08,6195a02e1d2e6fc9ed9c4f34,6195a2d86643f04d29353011,EASY,"""","""","""","""",null,img/fixation.png,null,fixation,"""","""","""","""","""","""",2021-11-18 00:48:26,84.91.248.42,"Mozilla/5.0 (Windows NT 10.0; Win64; x64) AppleWebKit/537.36 (KHTML, like Gecko) Chrome/96.0.4664.45 Safari/537.36",WebKit,Chrome,96.0.4664.45,Windows,10.0,16bd09c346ed3fd7ed45c3bb10d71816
37,1,"""",image-keyboard-response,32,287770,0.0-6.0-2.0-1.4,60fbc53a81120344612e0d08,6195a02e1d2e6fc9ed9c4f34,6195a2d86643f04d29353011,60fbc53a81120344612e0d08,6195a02e1d2e6fc9ed9c4f34,6195a2d86643f04d29353011,EASY,"""","""","""","""",616.8999999761581,img/flower_right.png,j,practice,"""","""",f,0,"""","""",2021-11-18 00:48:26,84.91.248.42,"Mozilla/5.0 (Windows NT 10.0; Win64; x64) AppleWebKit/537.36 (KHTML, like Gecko) Chrome/96.0.4664.45 Safari/537.36",WebKit,Chrome,96.0.4664.45,Windows,10.0,16bd09c346ed3fd7ed45c3bb10d71816
37,1,"""",html-keyboard-response,33,288772,0.0-6.0-2.0-2.4,60fbc53a81120344612e0d08,6195a02e1d2e6fc9ed9c4f34,6195a2d86643f04d29353011,60fbc53a81120344612e0d08,6195a02e1d2e6fc9ed9c4f34,6195a2d86643f04d29353011,EASY,"""","""","""","""",null,INCORRECT!,null,"""","""","""","""","""",feedback,"""",2021-11-18 00:48:26,84.91.248.42,"Mozilla/5.0 (Windows NT 10.0; Win64; x64) AppleWebKit/537.36 (KHTML, like Gecko) Chrome/96.0.4664.45 Safari/537.36",WebKit,Chrome,96.0.4664.45,Windows,10.0,16bd09c346ed3fd7ed45c3bb10d71816
37,1,"""",image-keyboard-response,34,290026,0.0-6.0-2.0-0.5,60fbc53a81120344612e0d08,6195a02e1d2e6fc9ed9c4f34,6195a2d86643f04d29353011,60fbc53a81120344612e0d08,6195a02e1d2e6fc9ed9c4f34,6195a2d86643f04d29353011,EASY,"""","""","""","""",null,img/fixation.png,null,fixation,"""","""","""","""","""","""",2021-11-18 00:48:26,84.91.248.42,"Mozilla/5.0 (Windows NT 10.0; Win64; x64) AppleWebKit/537.36 (KHTML, like Gecko) Chrome/96.0.4664.45 Safari/537.36",WebKit,Chrome,96.0.4664.45,Windows,10.0,16bd09c346ed3fd7ed45c3bb10d71816
37,1,"""",image-keyboard-response,35,290603,0.0-6.0-2.0-1.5,60fbc53a81120344612e0d08,6195a02e1d2e6fc9ed9c4f34,6195a2d86643f04d29353011,60fbc53a81120344612e0d08,6195a02e1d2e6fc9ed9c4f34,6195a2d86643f04d29353011,EASY,"""","""","""","""",575.4000000953674,img/flower_right.png,f,practice,"""","""",f,1,"""","""",2021-11-18 00:48:26,84.91.248.42,"Mozilla/5.0 (Windows NT 10.0; Win64; x64) AppleWebKit/537.36 (KHTML, like Gecko) Chrome/96.0.4664.45 Safari/537.36",WebKit,Chrome,96.0.4664.45,Windows,10.0,16bd09c346ed3fd7ed45c3bb10d71816
