run_id,condition,success,trial_type,trial_index,time_elapsed,internal_node_id,PROLIFIC_PID,STUDY_ID,SESSION_ID,subject_id,study_id,session_id,group,timeout,failed_images,failed_audio,failed_video,rt,stimulus,response,task,question_order,view_history,correct_response,accuracy,screen_id,block,recorded_at,ip,user_agent,device,browser,browser_version,platform,platform_version,source_code_version
4,1,true,fullscreen,0,7564,0.0-0.0,6121397b03ca9997c36260fb,61959741cbff6ce92d351fcf,619597ac3511476c5ef595cb,6121397b03ca9997c36260fb,61959741cbff6ce92d351fcf,619597ac3511476c5ef595cb,HARD,"""","""","""","""","""","""","""","""","""","""","""","""","""","""",2021-11-18 00:01:46,105.12.3.25,"Mozilla/5.0 (Windows NT 10.0; Win64; x64) AppleWebKit/537.36 (KHTML, like Gecko) Chrome/95.0.4638.69 Safari/537.36",WebKit,Chrome,95.0.4638.69,Windows,10.0,dea0c026f67335fbc761b19bc27fdecd
4,1,true,preload,1,15989,0.0-1.0,6121397b03ca9997c36260fb,61959741cbff6ce92d351fcf,619597ac3511476c5ef595cb,6121397b03ca9997c36260fb,61959741cbff6ce92d351fcf,619597ac3511476c5ef595cb,HARD,false,[],[],[],"""","""","""","""","""","""","""","""","""","""",2021-11-18 00:01:46,105.12.3.25,"Mozilla/5.0 (Windows NT 10.0; Win64; x64) AppleWebKit/537.36 (KHTML, like Gecko) Chrome/95.0.4638.69 Safari/537.36",WebKit,Chrome,95.0.4638.69,Windows,10.0,dea0c026f67335fbc761b19bc27fdecd
4,1,"""",html-button-response,2,18925,0.0-2.0,6121397b03ca9997c36260fb,61959741cbff6ce92d351fcf,619597ac3511476c5ef595cb,6121397b03ca9997c36260fb,61959741cbff6ce92d351fcf,619597ac3511476c5ef595cb,HARD,"""","""","""","""",2933.4000000953674,<p>Welcome! Thank you so much for participating in this study. Press START to begin.</p><br>,0,"""","""","""","""","""","""","""",2021-11-18 00:01:46,105.12.3.25,"Mozilla/5.0 (Windows NT 10.0; Win64; x64) AppleWebKit/537.36 (KHTML, like Gecko) Chrome/95.0.4638.69 Safari/537.36",WebKit,Chrome,95.0.4638.69,Windows,10.0,dea0c026f67335fbc761b19bc27fdecd
4,1,"""",html-button-response,3,33210,0.0-3.0,6121397b03ca9997c36260fb,61959741cbff6ce92d351fcf,619597ac3511476c5ef595cb,6121397b03ca9997c36260fb,61959741cbff6ce92d351fcf,619597ac3511476c5ef595cb,HARD,"""","""","""","""",14282.60000038147,"<p>First, you will review a series of hypothetical scenarios each related to finances</p><br><p>Please think about each scenario carefully for approximately <strong>one minute</strong>.</p><br><p>Please reflect and process the scenario as if it were actually happening. Questions will be there to help guide your thinking.</p><p>When you are ready to begin, please press REVIEW to begin the study.",0,"""","""","""","""","""","""","""",2021-11-18 00:01:46,105.12.3.25,"Mozilla/5.0 (Windows NT 10.0; Win64; x64) AppleWebKit/537.36 (KHTML, like Gecko) Chrome/95.0.4638.69 Safari/537.36",WebKit,Chrome,95.0.4638.69,Windows,10.0,dea0c026f67335fbc761b19bc27fdecd
4,1,"""",image-keyboard-response,4,34745,0.0-4.0-0.0,6121397b03ca9997c36260fb,61959741cbff6ce92d351fcf,619597ac3511476c5ef595cb,6121397b03ca9997c36260fb,61959741cbff6ce92d351fcf,619597ac3511476c5ef595cb,HARD,"""","""","""","""",null,img/fixation.png,null,fixation,"""","""","""","""","""","""",2021-11-18 00:01:46,105.12.3.25,"Mozilla/5.0 (Windows NT 10.0; Win64; x64) AppleWebKit/537.36 (KHTML, like Gecko) Chrome/95.0.4638.69 Safari/537.36",WebKit,Chrome,95.0.4638.69,Windows,10.0,dea0c026f67335fbc761b19bc27fdecd
4,1,"""",image-keyboard-response,5,64758,0.0-4.0-1.0,6121397b03ca9997c36260fb,61959741cbff6ce92d351fcf,619597ac3511476c5ef595cb,6121397b03ca9997c36260fb,61959741cbff6ce92d351fcf,619597ac3511476c5ef595cb,HARD,"""","""","""","""",null,scarcity/easy/scenario3.png,null,"""","""","""","""","""","""","""",2021-11-18 00:01:46,105.12.3.25,"Mozilla/5.0 (Windows NT 10.0; Win64; x64) AppleWebKit/537.36 (KHTML, like Gecko) Chrome/95.0.4638.69 Safari/537.36",WebKit,Chrome,95.0.4638.69,Windows,10.0,dea0c026f67335fbc761b19bc27fdecd
4,1,"""",survey-multi-choice,6,75962,0.0-4.0-2.0,6121397b03ca9997c36260fb,61959741cbff6ce92d351fcf,619597ac3511476c5ef595cb,6121397b03ca9997c36260fb,61959741cbff6ce92d351fcf,619597ac3511476c5ef595cb,HARD,"""","""","""","""",11198.200000286102,"""","{""Q0"":""No"",""Q1"":""No""}","""","[0,1]","""","""","""","""","""",2021-11-18 00:01:46,105.12.3.25,"Mozilla/5.0 (Windows NT 10.0; Win64; x64) AppleWebKit/537.36 (KHTML, like Gecko) Chrome/95.0.4638.69 Safari/537.36",WebKit,Chrome,95.0.4638.69,Windows,10.0,dea0c026f67335fbc761b19bc27fdecd
4,1,"""",image-keyboard-response,7,76969,0.0-4.0-0.1,6121397b03ca9997c36260fb,61959741cbff6ce92d351fcf,619597ac3511476c5ef595cb,6121397b03ca9997c36260fb,61959741cbff6ce92d351fcf,619597ac3511476c5ef595cb,HARD,"""","""","""","""",null,img/fixation.png,null,fixation,"""","""","""","""","""","""",2021-11-18 00:01:46,105.12.3.25,"Mozilla/5.0 (Windows NT 10.0; Win64; x64) AppleWebKit/537.36 (KHTML, like Gecko) Chrome/95.0.4638.69 Safari/537.36",WebKit,Chrome,95.0.4638.69,Windows,10.0,dea0c026f67335fbc761b19bc27fdecd
4,1,"""",image-keyboard-response,8,106975,0.0-4.0-1.1,6121397b03ca9997c36260fb,61959741cbff6ce92d351fcf,619597ac3511476c5ef595cb,6121397b03ca9997c36260fb,61959741cbff6ce92d351fcf,619597ac3511476c5ef595cb,HARD,"""","""","""","""",null,scarcity/easy/scenario1.png,null,"""","""","""","""","""","""","""",2021-11-18 00:01:46,105.12.3.25,"Mozilla/5.0 (Windows NT 10.0; Win64; x64) AppleWebKit/537.36 (KHTML, like Gecko) Chrome/95.0.4638.69 Safari/537.36",WebKit,Chrome,95.0.4638.69,Windows,10.0,dea0c026f67335fbc761b19bc27fdecd
4,1,"""",survey-multi-choice,9,115228,0.0-4.0-2.1,6121397b03ca9997c36260fb,61959741cbff6ce92d351fcf,619597ac3511476c5ef595cb,6121397b03ca9997c36260fb,61959741cbff6ce92d351fcf,619597ac3511476c5ef595cb,HARD,"""","""","""","""",8241.200000286102,"""","{""Q0"":""Yes"",""Q1"":""No""}","""","[0,1]","""","""","""","""","""",2021-11-18 00:01:46,105.12.3.25,"Mozilla/5.0 (Windows NT 10.0; Win64; x64) AppleWebKit/537.36 (KHTML, like Gecko) Chrome/95.0.4638.69 Safari/537.36",WebKit,Chrome,95.0.4638.69,Windows,10.0,dea0c026f67335fbc761b19bc27fdecd
4,1,"""",image-keyboard-response,10,115732,0.0-4.0-0.2,6121397b03ca9997c36260fb,61959741cbff6ce92d351fcf,619597ac3511476c5ef595cb,6121397b03ca9997c36260fb,61959741cbff6ce92d351fcf,619597ac3511476c5ef595cb,HARD,"""","""","""","""",null,img/fixation.png,null,fixation,"""","""","""","""","""","""",2021-11-18 00:01:46,105.12.3.25,"Mozilla/5.0 (Windows NT 10.0; Win64; x64) AppleWebKit/537.36 (KHTML, like Gecko) Chrome/95.0.4638.69 Safari/537.36",WebKit,Chrome,95.0.4638.69,Windows,10.0,dea0c026f67335fbc761b19bc27fdecd
4,1,"""",image-keyboard-response,11,145756,0.0-4.0-1.2,6121397b03ca9997c36260fb,61959741cbff6ce92d351fcf,619597ac3511476c5ef595cb,6121397b03ca9997c36260fb,61959741cbff6ce92d351fcf,619597ac3511476c5ef595cb,HARD,"""","""","""","""",null,scarcity/easy/scenario2.png,null,"""","""","""","""","""","""","""",2021-11-18 00:01:46,105.12.3.25,"Mozilla/5.0 (Windows NT 10.0; Win64; x64) AppleWebKit/537.36 (KHTML, like Gecko) Chrome/95.0.4638.69 Safari/537.36",WebKit,Chrome,95.0.4638.69,Windows,10.0,dea0c026f67335fbc761b19bc27fdecd
4,1,"""",survey-multi-choice,12,152293,0.0-4.0-2.2,6121397b03ca9997c36260fb,61959741cbff6ce92d351fcf,619597ac3511476c5ef595cb,6121397b03ca9997c36260fb,61959741cbff6ce92d351fcf,619597ac3511476c5ef595cb,HARD,"""","""","""","""",6534.199999809265,"""","{""Q0"":""Yes"",""Q1"":""Yes""}","""","[0,1]","""","""","""","""","""",2021-11-18 00:01:46,105.12.3.25,"Mozilla/5.0 (Windows NT 10.0; Win64; x64) AppleWebKit/537.36 (KHTML, like Gecko) Chrome/95.0.4638.69 Safari/537.36",WebKit,Chrome,95.0.4638.69,Windows,10.0,dea0c026f67335fbc761b19bc27fdecd
4,1,"""",image-keyboard-response,13,154050,0.0-4.0-0.3,6121397b03ca9997c36260fb,61959741cbff6ce92d351fcf,619597ac3511476c5ef595cb,6121397b03ca9997c36260fb,61959741cbff6ce92d351fcf,619597ac3511476c5ef595cb,HARD,"""","""","""","""",null,img/fixation.png,null,fixation,"""","""","""","""","""","""",2021-11-18 00:01:46,105.12.3.25,"Mozilla/5.0 (Windows NT 10.0; Win64; x64) AppleWebKit/537.36 (KHTML, like Gecko) Chrome/95.0.4638.69 Safari/537.36",WebKit,Chrome,95.0.4638.69,Windows,10.0,dea0c026f67335fbc761b19bc27fdecd
4,1,"""",image-keyboard-response,14,184063,0.0-4.0-1.3,6121397b03ca9997c36260fb,61959741cbff6ce92d351fcf,619597ac3511476c5ef595cb,6121397b03ca9997c36260fb,61959741cbff6ce92d351fcf,619597ac3511476c5ef595cb,HARD,"""","""","""","""",null,scarcity/easy/scenario4.png,null,"""","""","""","""","""","""","""",2021-11-18 00:01:46,105.12.3.25,"Mozilla/5.0 (Windows NT 10.0; Win64; x64) AppleWebKit/537.36 (KHTML, like Gecko) Chrome/95.0.4638.69 Safari/537.36",WebKit,Chrome,95.0.4638.69,Windows,10.0,dea0c026f67335fbc761b19bc27fdecd
4,1,"""",survey-multi-choice,15,191887,0.0-4.0-2.3,6121397b03ca9997c36260fb,61959741cbff6ce92d351fcf,619597ac3511476c5ef595cb,6121397b03ca9997c36260fb,61959741cbff6ce92d351fcf,619597ac3511476c5ef595cb,HARD,"""","""","""","""",7818.800000190735,"""","{""Q0"":""Yes"",""Q1"":""Yes""}","""","[0,1]","""","""","""","""","""",2021-11-18 00:01:46,105.12.3.25,"Mozilla/5.0 (Windows NT 10.0; Win64; x64) AppleWebKit/537.36 (KHTML, like Gecko) Chrome/95.0.4638.69 Safari/537.36",WebKit,Chrome,95.0.4638.69,Windows,10.0,dea0c026f67335fbc761b19bc27fdecd
4,1,"""",html-button-response,16,197055,0.0-5.0,6121397b03ca9997c36260fb,61959741cbff6ce92d351fcf,619597ac3511476c5ef595cb,6121397b03ca9997c36260fb,61959741cbff6ce92d351fcf,619597ac3511476c5ef595cb,HARD,"""","""","""","""",5165.5,"<p>You have finished reviewing each scenario!</p><p>We will now begin the cognitive experiment.<p><p>When you are ready to begin the cognitive game, please press START.</p>",0,"""","""","""","""","""","""","""",2021-11-18 00:01:46,105.12.3.25,"Mozilla/5.0 (Windows NT 10.0; Win64; x64) AppleWebKit/537.36 (KHTML, like Gecko) Chrome/95.0.4638.69 Safari/537.36",WebKit,Chrome,95.0.4638.69,Windows,10.0,dea0c026f67335fbc761b19bc27fdecd
4,1,"""",instructions,17,297713,0.0-6.0-0.0,6121397b03ca9997c36260fb,61959741cbff6ce92d351fcf,619597ac3511476c5ef595cb,6121397b03ca9997c36260fb,61959741cbff6ce92d351fcf,619597ac3511476c5ef595cb,HARD,"""","""","""","""",98892.40000009537,"""","""","""","""","[{""page_index"":0,""viewing_time"":23037},{""page_index"":1,""viewing_time"":20141.200000286102},{""page_index"":2,""viewing_time"":11594.099999904633},{""page_index"":3,""viewing_time"":8090.599999904633},{""page_index"":4,""viewing_time"":9198.199999809265},{""page_index"":5,""viewing_time"":13492.400000095367},{""page_index"":6,""viewing_time"":13337.5}]","""","""","""","""",2021-11-18 00:01:46,105.12.3.25,"Mozilla/5.0 (Windows NT 10.0; Win64; x64) AppleWebKit/537.36 (KHTML, like Gecko) Chrome/95.0.4638.69 Safari/537.36",WebKit,Chrome,95.0.4638.69,Windows,10.0,dea0c026f67335fbc761b19bc27fdecd
4,1,"""",image-button-response,18,330760,0.0-6.0-1.0,6121397b03ca9997c36260fb,61959741cbff6ce92d351fcf,619597ac3511476c5ef595cb,6121397b03ca9997c36260fb,61959741cbff6ce92d351fcf,619597ac3511476c5ef595cb,HARD,"""","""","""","""",33044.5,begin_practice.png,0,"""","""","""","""","""","""","""",2021-11-18 00:01:46,105.12.3.25,"Mozilla/5.0 (Windows NT 10.0; Win64; x64) AppleWebKit/537.36 (KHTML, like Gecko) Chrome/95.0.4638.69 Safari/537.36",WebKit,Chrome,95.0.4638.69,Windows,10.0,dea0c026f67335fbc761b19bc27fdecd
4,1,"""",image-keyboard-response,19,333272,0.0-6.0-2.0-0.0,6121397b03ca9997c36260fb,61959741cbff6ce92d351fcf,619597ac3511476c5ef595cb,6121397b03ca9997c36260fb,61959741cbff6ce92d351fcf,619597ac3511476c5ef595cb,HARD,"""","""","""","""",null,img/fixation.png,null,fixation,"""","""","""","""","""","""",2021-11-18 00:01:46,105.12.3.25,"Mozilla/5.0 (Windows NT 10.0; Win64; x64) AppleWebKit/537.36 (KHTML, like Gecko) Chrome/95.0.4638.69 Safari/537.36",WebKit,Chrome,95.0.4638.69,Windows,10.0,dea0c026f67335fbc761b19bc27fdecd
4,1,"""",image-keyboard-response,20,335960,0.0-6.0-2.0-1.0,6121397b03ca9997c36260fb,61959741cbff6ce92d351fcf,619597ac3511476c5ef595cb,6121397b03ca9997c36260fb,61959741cbff6ce92d351fcf,619597ac3511476c5ef595cb,HARD,"""","""","""","""",2684,img/flower_right.png,f,practice,"""","""",f,1,"""","""",2021-11-18 00:01:46,105.12.3.25,"Mozilla/5.0 (Windows NT 10.0; Win64; x64) AppleWebKit/537.36 (KHTML, like Gecko) Chrome/95.0.4638.69 Safari/537.36",WebKit,Chrome,95.0.4638.69,Windows,10.0,dea0c026f67335fbc761b19bc27fdecd
4,1,"""",html-keyboard-response,21,336963,0.0-6.0-2.0-2.0,6121397b03ca9997c36260fb,61959741cbff6ce92d351fcf,619597ac3511476c5ef595cb,6121397b03ca9997c36260fb,61959741cbff6ce92d351fcf,619597ac3511476c5ef595cb,HARD,"""","""","""","""",null,CORRECT!,null,"""","""","""","""","""",feedback,"""",2021-11-18 00:01:46,105.12.3.25,"Mozilla/5.0 (Windows NT 10.0; Win64; x64) AppleWebKit/537.36 (KHTML, like Gecko) Chrome/95.0.4638.69 Safari/537.36",WebKit,Chrome,95.0.4638.69,Windows,10.0,dea0c026f67335fbc761b19bc27fdecd
4,1,"""",image-keyboard-response,22,337728,0.0-6.0-2.0-0.1,6121397b03ca9997c36260fb,61959741cbff6ce92d351fcf,619597ac3511476c5ef595cb,6121397b03ca9997c36260fb,61959741cbff6ce92d351fcf,619597ac3511476c5ef595cb,HARD,"""","""","""","""",null,img/fixation.png,null,fixation,"""","""","""","""","""","""",2021-11-18 00:01:46,105.12.3.25,"Mozilla/5.0 (Windows NT 10.0; Win64; x64) AppleWebKit/537.36 (KHTML, like Gecko) Chrome/95.0.4638.69 Safari/537.36",WebKit,Chrome,95.0.4638.69,Windows,10.0,dea0c026f67335fbc761b19bc27fdecd
4,1,"""",image-keyboard-response,23,339844,0.0-6.0-2.0-1.1,6121397b03ca9997c36260fb,61959741cbff6ce92d351fcf,619597ac3511476c5ef595cb,6121397b03ca9997c36260fb,61959741cbff6ce92d351fcf,619597ac3511476c5ef595cb,HARD,"""","""","""","""",2112.0999999046326,img/heart_right.png,j,practice,"""","""",j,1,"""","""",2021-11-18 00:01:46,105.12.3.25,"Mozilla/5.0 (Windows NT 10.0; Win64; x64) AppleWebKit/537.36 (KHTML, like Gecko) Chrome/95.0.4638.69 Safari/537.36",WebKit,Chrome,95.0.4638.69,Windows,10.0,dea0c026f67335fbc761b19bc27fdecd
4,1,"""",html-keyboard-response,24,340852,0.0-6.0-2.0-2.1,6121397b03ca9997c36260fb,61959741cbff6ce92d351fcf,619597ac3511476c5ef595cb,6121397b03ca9997c36260fb,61959741cbff6ce92d351fcf,619597ac3511476c5ef595cb,HARD,"""","""","""","""",null,CORRECT!,null,"""","""","""","""","""",feedback,"""",2021-11-18 00:01:46,105.12.3.25,"Mozilla/5.0 (Windows NT 10.0; Win64; x64) AppleWebKit/537.36 (KHTML, like Gecko) Chrome/95.0.4638.69 Safari/537.36",WebKit,Chrome,95.0.4638.69,Windows,10.0,dea0c026f67335fbc761b19bc27fdecd
4,1,"""",image-keyboard-response,25,342112,0.0-6.0-2.0-0.2,6121397b03ca9997c36260fb,61959741cbff6ce92d351fcf,619597ac3511476c5ef595cb,6121397b03ca9997c36260fb,61959741cbff6ce92d351fcf,619597ac3511476c5ef595cb,HARD,"""","""","""","""",null,img/fixation.png,null,fixation,"""","""","""","""","""","""",2021-11-18 00:01:46,105.12.3.25,"Mozilla/5.0 (Windows NT 10.0; Win64; x64) AppleWebKit/537.36 (KHTML, like Gecko) Chrome/95.0.4638.69 Safari/537.36",WebKit,Chrome,95.0.4638.69,Windows,10.0,dea0c026f67335fbc761b19bc27fdecd
4,1,"""",image-keyboard-response,26,344988,0.0-6.0-2.0-1.2,6121397b03ca9997c36260fb,61959741cbff6ce92d351fcf,619597ac3511476c5ef595cb,6121397b03ca9997c36260fb,61959741cbff6ce92d351fcf,619597ac3511476c5ef595cb,HARD,"""","""","""","""",2873.2000002861023,img/flower_right.png,f,practice,"""","""",f,1,"""","""",2021-11-18 00:01:46,105.12.3.25,"Mozilla/5.0 (Windows NT 10.0; Win64; x64) AppleWebKit/537.36 (KHTML, like Gecko) Chrome/95.0.4638.69 Safari/537.36",WebKit,Chrome,95.0.4638.69,Windows,10.0,dea0c026f67335fbc761b19bc27fdecd
4,1,"""",html-keyboard-response,27,345998,0.0-6.0-2.0-2.2,6121397b03ca9997c36260fb,61959741cbff6ce92d351fcf,619597ac3511476c5ef595cb,6121397b03ca9997c36260fb,61959741cbff6ce92d351fcf,619597ac3511476c5ef595cb,HARD,"""","""","""","""",null,CORRECT!,null,"""","""","""","""","""",feedback,"""",2021-11-18 00:01:46,105.12.3.25,"Mozilla/5.0 (Windows NT 10.0; Win64; x64) AppleWebKit/537.36 (KHTML, like Gecko) Chrome/95.0.4638.69 Safari/537.36",WebKit,Chrome,95.0.4638.69,Windows,10.0,dea0c026f67335fbc761b19bc27fdecd
4,1,"""",image-keyboard-response,28,346756,0.0-6.0-2.0-0.3,6121397b03ca9997c36260fb,61959741cbff6ce92d351fcf,619597ac3511476c5ef595cb,6121397b03ca9997c36260fb,61959741cbff6ce92d351fcf,619597ac3511476c5ef595cb,HARD,"""","""","""","""",null,img/fixation.png,null,fixation,"""","""","""","""","""","""",2021-11-18 00:01:46,105.12.3.25,"Mozilla/5.0 (Windows NT 10.0; Win64; x64) AppleWebKit/537.36 (KHTML, like Gecko) Chrome/95.0.4638.69 Safari/537.36",WebKit,Chrome,95.0.4638.69,Windows,10.0,dea0c026f67335fbc761b19bc27fdecd
4,1,"""",image-keyboard-response,29,349376,0.0-6.0-2.0-1.3,6121397b03ca9997c36260fb,61959741cbff6ce92d351fcf,619597ac3511476c5ef595cb,6121397b03ca9997c36260fb,61959741cbff6ce92d351fcf,619597ac3511476c5ef595cb,HARD,"""","""","""","""",2615.699999809265,img/heart_left.png,f,practice,"""","""",f,1,"""","""",2021-11-18 00:01:46,105.12.3.25,"Mozilla/5.0 (Windows NT 10.0; Win64; x64) AppleWebKit/537.36 (KHTML, like Gecko) Chrome/95.0.4638.69 Safari/537.36",WebKit,Chrome,95.0.4638.69,Windows,10.0,dea0c026f67335fbc761b19bc27fdecd
4,1,"""",html-keyboard-response,30,350388,0.0-6.0-2.0-2.3,6121397b03ca9997c36260fb,61959741cbff6ce92d351fcf,619597ac3511476c5ef595cb,6121397b03ca9997c36260fb,61959741cbff6ce92d351fcf,619597ac3511476c5ef595cb,HARD,"""","""","""","""",null,CORRECT!,null,"""","""","""","""","""",feedback,"""",2021-11-18 00:01:46,105.12.3.25,"Mozilla/5.0 (Windows NT 10.0; Win64; x64) AppleWebKit/537.36 (KHTML, like Gecko) Chrome/95.0.4638.69 Safari/537.36",WebKit,Chrome,95.0.4638.69,Windows,10.0,dea0c026f67335fbc761b19bc27fdecd
4,1,"""",image-keyboard-response,31,351902,0.0-6.0-2.0-0.4,6121397b03ca9997c36260fb,61959741cbff6ce92d351fcf,619597ac3511476c5ef595cb,6121397b03ca9997c36260fb,61959741cbff6ce92d351fcf,619597ac3511476c5ef595cb,HARD,"""","""","""","""",null,img/fixation.png,null,fixation,"""","""","""","""","""","""",2021-11-18 00:01:46,105.12.3.25,"Mozilla/5.0 (Windows NT 10.0; Win64; x64) AppleWebKit/537.36 (KHTML, like Gecko) Chrome/95.0.4638.69 Safari/537.36",WebKit,Chrome,95.0.4638.69,Windows,10.0,dea0c026f67335fbc761b19bc27fdecd
4,1,"""",image-keyboard-response,32,354037,0.0-6.0-2.0-1.4,6121397b03ca9997c36260fb,61959741cbff6ce92d351fcf,619597ac3511476c5ef595cb,6121397b03ca9997c36260fb,61959741cbff6ce92d351fcf,619597ac3511476c5ef595cb,HARD,"""","""","""","""",2129.5999999046326,img/flower_right.png,f,practice,"""","""",f,1,"""","""",2021-11-18 00:01:46,105.12.3.25,"Mozilla/5.0 (Windows NT 10.0; Win64; x64) AppleWebKit/537.36 (KHTML, like Gecko) Chrome/95.0.4638.69 Safari/537.36",WebKit,Chrome,95.0.4638.69,Windows,10.0,dea0c026f67335fbc761b19bc27fdecd
4,1,"""",html-keyboard-response,33,355047,0.0-6.0-2.0-2.4,6121397b03ca9997c36260fb,61959741cbff6ce92d351fcf,619597ac3511476c5ef595cb,6121397b03ca9997c36260fb,61959741cbff6ce92d351fcf,619597ac3511476c5ef595cb,HARD,"""","""","""","""",null,CORRECT!,null,"""","""","""","""","""",feedback,"""",2021-11-18 00:01:46,105.12.3.25,"Mozilla/5.0 (Windows NT 10.0; Win64; x64) AppleWebKit/537.36 (KHTML, like Gecko) Chrome/95.0.4638.69 Safari/537.36",WebKit,Chrome,95.0.4638.69,Windows,10.0,dea0c026f67335fbc761b19bc27fdecd
4,1,"""",image-keyboard-response,34,356304,0.0-6.0-2.0-0.5,6121397b03ca9997c36260fb,61959741cbff6ce92d351fcf,619597ac3511476c5ef595cb,6121397b03ca9997c36260fb,61959741cbff6ce92d351fcf,619597ac3511476c5ef595cb,HARD,"""","""","""","""",null,img/fixation.png,null,fixation,"""","""","""","""","""","""",2021-11-18 00:01:46,105.12.3.25,"Mozilla/5.0 (Windows NT 10.0; Win64; x64) AppleWebKit/537.36 (KHTML, like Gecko) Chrome/95.0.4638.69 Safari/537.36",WebKit,Chrome,95.0.4638.69,Windows,10.0,dea0c026f67335fbc761b19bc27fdecd
4,1,"""",image-keyboard-response,35,357609,0.0-6.0-2.0-1.5,6121397b03ca9997c36260fb,61959741cbff6ce92d351fcf,619597ac3511476c5ef595cb,6121397b03ca9997c36260fb,61959741cbff6ce92d351fcf,619597ac3511476c5ef595cb,HARD,"""","""","""","""",1300.6999998092651,img/heart_left.png,f,practice,"""","""",f,1,"""","""",2021-11-18 00:01:46,105.12.3.25,"Mozilla/5.0 (Windows NT 10.0; Win64; x64) AppleWebKit/537.36 (KHTML, like Gecko) Chrome/95.0.4638.69 Safari/537.36",WebKit,Chrome,95.0.4638.69,Windows,10.0,dea0c026f67335fbc761b19bc27fdecd
4,1,"""",html-keyboard-response,36,358620,0.0-6.0-2.0-2.5,6121397b03ca9997c36260fb,61959741cbff6ce92d351fcf,619597ac3511476c5ef595cb,6121397b03ca9997c36260fb,61959741cbff6ce92d351fcf,619597ac3511476c5ef595cb,HARD,"""","""","""","""",null,CORRECT!,null,"""","""","""","""","""",feedback,"""",2021-11-18 00:01:46,105.12.3.25,"Mozilla/5.0 (Windows NT 10.0; Win64; x64) AppleWebKit/537.36 (KHTML, like Gecko) Chrome/95.0.4638.69 Safari/537.36",WebKit,Chrome,95.0.4638.69,Windows,10.0,dea0c026f67335fbc761b19bc27fdecd
4,1,"""",image-keyboard-response,37,360632,0.0-6.0-2.0-0.6,6121397b03ca9997c36260fb,61959741cbff6ce92d351fcf,619597ac3511476c5ef595cb,6121397b03ca9997c36260fb,61959741cbff6ce92d351fcf,619597ac3511476c5ef595cb,HARD,"""","""","""","""",null,img/fixation.png,null,fixation,"""","""","""","""","""","""",2021-11-18 00:01:46,105.12.3.25,"Mozilla/5.0 (Windows NT 10.0; Win64; x64) AppleWebKit/537.36 (KHTML, like Gecko) Chrome/95.0.4638.69 Safari/537.36",WebKit,Chrome,95.0.4638.69,Windows,10.0,dea0c026f67335fbc761b19bc27fdecd
4,1,"""",image-keyboard-response,38,364143,0.0-6.0-2.0-1.6,6121397b03ca9997c36260fb,61959741cbff6ce92d351fcf,619597ac3511476c5ef595cb,6121397b03ca9997c36260fb,61959741cbff6ce92d351fcf,619597ac3511476c5ef595cb,HARD,"""","""","""","""",3506.9000000953674,img/heart_right.png,j,practice,"""","""",j,1,"""","""",2021-11-18 00:01:46,105.12.3.25,"Mozilla/5.0 (Windows NT 10.0; Win64; x64) AppleWebKit/537.36 (KHTML, like Gecko) Chrome/95.0.4638.69 Safari/537.36",WebKit,Chrome,95.0.4638.69,Windows,10.0,dea0c026f67335fbc761b19bc27fdecd
4,1,"""",html-keyboard-response,39,365148,0.0-6.0-2.0-2.6,6121397b03ca9997c36260fb,61959741cbff6ce92d351fcf,619597ac3511476c5ef595cb,6121397b03ca9997c36260fb,61959741cbff6ce92d351fcf,619597ac3511476c5ef595cb,HARD,"""","""","""","""",null,CORRECT!,null,"""","""","""","""","""",feedback,"""",2021-11-18 00:01:46,105.12.3.25,"Mozilla/5.0 (Windows NT 10.0; Win64; x64) AppleWebKit/537.36 (KHTML, like Gecko) Chrome/95.0.4638.69 Safari/537.36",WebKit,Chrome,95.0.4638.69,Windows,10.0,dea0c026f67335fbc761b19bc27fdecd
4,1,"""",image-keyboard-response,40,365406,0.0-6.0-2.0-0.7,6121397b03ca9997c36260fb,61959741cbff6ce92d351fcf,619597ac3511476c5ef595cb,6121397b03ca9997c36260fb,61959741cbff6ce92d351fcf,619597ac3511476c5ef595cb,HARD,"""","""","""","""",null,img/fixation.png,null,fixation,"""","""","""","""","""","""",2021-11-18 00:01:46,105.12.3.25,"Mozilla/5.0 (Windows NT 10.0; Win64; x64) AppleWebKit/537.36 (KHTML, like Gecko) Chrome/95.0.4638.69 Safari/537.36",WebKit,Chrome,95.0.4638.69,Windows,10.0,dea0c026f67335fbc761b19bc27fdecd
4,1,"""",image-keyboard-response,41,366937,0.0-6.0-2.0-1.7,6121397b03ca9997c36260fb,61959741cbff6ce92d351fcf,619597ac3511476c5ef595cb,6121397b03ca9997c36260fb,61959741cbff6ce92d351fcf,619597ac3511476c5ef595cb,HARD,"""","""","""","""",1526.1999998092651,img/heart_right.png,j,practice,"""","""",j,1,"""","""",2021-11-18 00:01:46,105.12.3.25,"Mozilla/5.0 (Windows NT 10.0; Win64; x64) AppleWebKit/537.36 (KHTML, like Gecko) Chrome/95.0.4638.69 Safari/537.36",WebKit,Chrome,95.0.4638.69,Windows,10.0,dea0c026f67335fbc761b19bc27fdecd
4,1,"""",html-keyboard-response,42,367942,0.0-6.0-2.0-2.7,6121397b03ca9997c36260fb,61959741cbff6ce92d351fcf,619597ac3511476c5ef595cb,6121397b03ca9997c36260fb,61959741cbff6ce92d351fcf,619597ac3511476c5ef595cb,HARD,"""","""","""","""",null,CORRECT!,null,"""","""","""","""","""",feedback,"""",2021-11-18 00:01:46,105.12.3.25,"Mozilla/5.0 (Windows NT 10.0; Win64; x64) AppleWebKit/537.36 (KHTML, like Gecko) Chrome/95.0.4638.69 Safari/537.36",WebKit,Chrome,95.0.4638.69,Windows,10.0,dea0c026f67335fbc761b19bc27fdecd
4,1,"""",image-keyboard-response,43,368203,0.0-6.0-2.0-0.8,6121397b03ca9997c36260fb,61959741cbff6ce92d351fcf,619597ac3511476c5ef595cb,6121397b03ca9997c36260fb,61959741cbff6ce92d351fcf,619597ac3511476c5ef595cb,HARD,"""","""","""","""",null,img/fixation.png,null,fixation,"""","""","""","""","""","""",2021-11-18 00:01:46,105.12.3.25,"Mozilla/5.0 (Windows NT 10.0; Win64; x64) AppleWebKit/537.36 (KHTML, like Gecko) Chrome/95.0.4638.69 Safari/537.36",WebKit,Chrome,95.0.4638.69,Windows,10.0,dea0c026f67335fbc761b19bc27fdecd
4,1,"""",image-keyboard-response,44,370090,0.0-6.0-2.0-1.8,6121397b03ca9997c36260fb,61959741cbff6ce92d351fcf,619597ac3511476c5ef595cb,6121397b03ca9997c36260fb,61959741cbff6ce92d351fcf,619597ac3511476c5ef595cb,HARD,"""","""","""","""",1883.8000001907349,img/flower_left.png,j,practice,"""","""",j,1,"""","""",2021-11-18 00:01:46,105.12.3.25,"Mozilla/5.0 (Windows NT 10.0; Win64; x64) AppleWebKit/537.36 (KHTML, like Gecko) Chrome/95.0.4638.69 Safari/537.36",WebKit,Chrome,95.0.4638.69,Windows,10.0,dea0c026f67335fbc761b19bc27fdecd
4,1,"""",html-keyboard-response,45,371097,0.0-6.0-2.0-2.8,6121397b03ca9997c36260fb,61959741cbff6ce92d351fcf,619597ac3511476c5ef595cb,6121397b03ca9997c36260fb,61959741cbff6ce92d351fcf,619597ac3511476c5ef595cb,HARD,"""","""","""","""",null,CORRECT!,null,"""","""","""","""","""",feedback,"""",2021-11-18 00:01:46,105.12.3.25,"Mozilla/5.0 (Windows NT 10.0; Win64; x64) AppleWebKit/537.36 (KHTML, like Gecko) Chrome/95.0.4638.69 Safari/537.36",WebKit,Chrome,95.0.4638.69,Windows,10.0,dea0c026f67335fbc761b19bc27fdecd
4,1,"""",image-keyboard-response,46,371872,0.0-6.0-2.0-0.9,6121397b03ca9997c36260fb,61959741cbff6ce92d351fcf,619597ac3511476c5ef595cb,6121397b03ca9997c36260fb,61959741cbff6ce92d351fcf,619597ac3511476c5ef595cb,HARD,"""","""","""","""",null,img/fixation.png,null,fixation,"""","""","""","""","""","""",2021-11-18 00:01:46,105.12.3.25,"Mozilla/5.0 (Windows NT 10.0; Win64; x64) AppleWebKit/537.36 (KHTML, like Gecko) Chrome/95.0.4638.69 Safari/537.36",WebKit,Chrome,95.0.4638.69,Windows,10.0,dea0c026f67335fbc761b19bc27fdecd
4,1,"""",image-keyboard-response,47,372750,0.0-6.0-2.0-1.9,6121397b03ca9997c36260fb,61959741cbff6ce92d351fcf,619597ac3511476c5ef595cb,6121397b03ca9997c36260fb,61959741cbff6ce92d351fcf,619597ac3511476c5ef595cb,HARD,"""","""","""","""",873.5,img/flower_left.png,j,practice,"""","""",j,1,"""","""",2021-11-18 00:01:46,105.12.3.25,"Mozilla/5.0 (Windows NT 10.0; Win64; x64) AppleWebKit/537.36 (KHTML, like Gecko) Chrome/95.0.4638.69 Safari/537.36",WebKit,Chrome,95.0.4638.69,Windows,10.0,dea0c026f67335fbc761b19bc27fdecd
4,1,"""",html-keyboard-response,48,373760,0.0-6.0-2.0-2.9,6121397b03ca9997c36260fb,61959741cbff6ce92d351fcf,619597ac3511476c5ef595cb,6121397b03ca9997c36260fb,61959741cbff6ce92d351fcf,619597ac3511476c5ef595cb,HARD,"""","""","""","""",null,CORRECT!,null,"""","""","""","""","""",feedback,"""",2021-11-18 00:01:46,105.12.3.25,"Mozilla/5.0 (Windows NT 10.0; Win64; x64) AppleWebKit/537.36 (KHTML, like Gecko) Chrome/95.0.4638.69 Safari/537.36",WebKit,Chrome,95.0.4638.69,Windows,10.0,dea0c026f67335fbc761b19bc27fdecd
4,1,"""",image-button-response,49,396473,0.0-7.0,6121397b03ca9997c36260fb,61959741cbff6ce92d351fcf,619597ac3511476c5ef595cb,6121397b03ca9997c36260fb,61959741cbff6ce92d351fcf,619597ac3511476c5ef595cb,HARD,"""","""","""","""",22707.700000286102,img/begin_experiment.png,0,"""","""","""","""","""","""","""",2021-11-18 00:01:46,105.12.3.25,"Mozilla/5.0 (Windows NT 10.0; Win64; x64) AppleWebKit/537.36 (KHTML, like Gecko) Chrome/95.0.4638.69 Safari/537.36",WebKit,Chrome,95.0.4638.69,Windows,10.0,dea0c026f67335fbc761b19bc27fdecd
4,1,"""",html-button-response,50,404608,0.0-8.0,6121397b03ca9997c36260fb,61959741cbff6ce92d351fcf,619597ac3511476c5ef595cb,6121397b03ca9997c36260fb,61959741cbff6ce92d351fcf,619597ac3511476c5ef595cb,HARD,"""","""","""","""",6124.5,Block 1,0,"""","""","""","""","""","""","""",2021-11-18 00:01:46,105.12.3.25,"Mozilla/5.0 (Windows NT 10.0; Win64; x64) AppleWebKit/537.36 (KHTML, like Gecko) Chrome/95.0.4638.69 Safari/537.36",WebKit,Chrome,95.0.4638.69,Windows,10.0,dea0c026f67335fbc761b19bc27fdecd
4,1,"""",image-keyboard-response,51,407621,0.0-9.0-0.0,6121397b03ca9997c36260fb,61959741cbff6ce92d351fcf,619597ac3511476c5ef595cb,6121397b03ca9997c36260fb,61959741cbff6ce92d351fcf,619597ac3511476c5ef595cb,HARD,"""","""","""","""",null,img/fixation.png,null,fixation,"""","""","""","""","""",1,2021-11-18 00:01:46,105.12.3.25,"Mozilla/5.0 (Windows NT 10.0; Win64; x64) AppleWebKit/537.36 (KHTML, like Gecko) Chrome/95.0.4638.69 Safari/537.36",WebKit,Chrome,95.0.4638.69,Windows,10.0,dea0c026f67335fbc761b19bc27fdecd
4,1,"""",image-keyboard-response,52,409445,0.0-9.0-1.0,6121397b03ca9997c36260fb,61959741cbff6ce92d351fcf,619597ac3511476c5ef595cb,6121397b03ca9997c36260fb,61959741cbff6ce92d351fcf,619597ac3511476c5ef595cb,HARD,"""","""","""","""",1820.3000001907349,img/heart_right.png,j,response,"""","""",j,1,"""",1,2021-11-18 00:01:46,105.12.3.25,"Mozilla/5.0 (Windows NT 10.0; Win64; x64) AppleWebKit/537.36 (KHTML, like Gecko) Chrome/95.0.4638.69 Safari/537.36",WebKit,Chrome,95.0.4638.69,Windows,10.0,dea0c026f67335fbc761b19bc27fdecd
4,1,"""",image-keyboard-response,53,411459,0.0-9.0-0.1,6121397b03ca9997c36260fb,61959741cbff6ce92d351fcf,619597ac3511476c5ef595cb,6121397b03ca9997c36260fb,61959741cbff6ce92d351fcf,619597ac3511476c5ef595cb,HARD,"""","""","""","""",null,img/fixation.png,null,fixation,"""","""","""","""","""",1,2021-11-18 00:01:46,105.12.3.25,"Mozilla/5.0 (Windows NT 10.0; Win64; x64) AppleWebKit/537.36 (KHTML, like Gecko) Chrome/95.0.4638.69 Safari/537.36",WebKit,Chrome,95.0.4638.69,Windows,10.0,dea0c026f67335fbc761b19bc27fdecd
4,1,"""",image-keyboard-response,54,412263,0.0-9.0-1.1,6121397b03ca9997c36260fb,61959741cbff6ce92d351fcf,619597ac3511476c5ef595cb,6121397b03ca9997c36260fb,61959741cbff6ce92d351fcf,619597ac3511476c5ef595cb,HARD,"""","""","""","""",799.9000000953674,img/heart_right.png,j,response,"""","""",j,1,"""",1,2021-11-18 00:01:46,105.12.3.25,"Mozilla/5.0 (Windows NT 10.0; Win64; x64) AppleWebKit/537.36 (KHTML, like Gecko) Chrome/95.0.4638.69 Safari/537.36",WebKit,Chrome,95.0.4638.69,Windows,10.0,dea0c026f67335fbc761b19bc27fdecd
4,1,"""",image-keyboard-response,55,414021,0.0-9.0-0.2,6121397b03ca9997c36260fb,61959741cbff6ce92d351fcf,619597ac3511476c5ef595cb,6121397b03ca9997c36260fb,61959741cbff6ce92d351fcf,619597ac3511476c5ef595cb,HARD,"""","""","""","""",null,img/fixation.png,null,fixation,"""","""","""","""","""",1,2021-11-18 00:01:46,105.12.3.25,"Mozilla/5.0 (Windows NT 10.0; Win64; x64) AppleWebKit/537.36 (KHTML, like Gecko) Chrome/95.0.4638.69 Safari/537.36",WebKit,Chrome,95.0.4638.69,Windows,10.0,dea0c026f67335fbc761b19bc27fdecd
4,1,"""",image-keyboard-response,56,415172,0.0-9.0-1.2,6121397b03ca9997c36260fb,61959741cbff6ce92d351fcf,619597ac3511476c5ef595cb,6121397b03ca9997c36260fb,61959741cbff6ce92d351fcf,619597ac3511476c5ef595cb,HARD,"""","""","""","""",1146.9000000953674,img/heart_left.png,f,response,"""","""",f,1,"""",1,2021-11-18 00:01:46,105.12.3.25,"Mozilla/5.0 (Windows NT 10.0; Win64; x64) AppleWebKit/537.36 (KHTML, like Gecko) Chrome/95.0.4638.69 Safari/537.36",WebKit,Chrome,95.0.4638.69,Windows,10.0,dea0c026f67335fbc761b19bc27fdecd
4,1,"""",image-keyboard-response,57,416194,0.0-9.0-0.3,6121397b03ca9997c36260fb,61959741cbff6ce92d351fcf,619597ac3511476c5ef595cb,6121397b03ca9997c36260fb,61959741cbff6ce92d351fcf,619597ac3511476c5ef595cb,HARD,"""","""","""","""",null,img/fixation.png,null,fixation,"""","""","""","""","""",1,2021-11-18 00:01:46,105.12.3.25,"Mozilla/5.0 (Windows NT 10.0; Win64; x64) AppleWebKit/537.36 (KHTML, like Gecko) Chrome/95.0.4638.69 Safari/537.36",WebKit,Chrome,95.0.4638.69,Windows,10.0,dea0c026f67335fbc761b19bc27fdecd
4,1,"""",image-keyboard-response,58,418561,0.0-9.0-1.3,6121397b03ca9997c36260fb,61959741cbff6ce92d351fcf,619597ac3511476c5ef595cb,6121397b03ca9997c36260fb,61959741cbff6ce92d351fcf,619597ac3511476c5ef595cb,HARD,"""","""","""","""",2362.9000000953674,img/flower_right.png,f,response,"""","""",f,1,"""",1,2021-11-18 00:01:46,105.12.3.25,"Mozilla/5.0 (Windows NT 10.0; Win64; x64) AppleWebKit/537.36 (KHTML, like Gecko) Chrome/95.0.4638.69 Safari/537.36",WebKit,Chrome,95.0.4638.69,Windows,10.0,dea0c026f67335fbc761b19bc27fdecd
4,1,"""",image-keyboard-response,59,420570,0.0-9.0-0.4,6121397b03ca9997c36260fb,61959741cbff6ce92d351fcf,619597ac3511476c5ef595cb,6121397b03ca9997c36260fb,61959741cbff6ce92d351fcf,619597ac3511476c5ef595cb,HARD,"""","""","""","""",null,img/fixation.png,null,fixation,"""","""","""","""","""",1,2021-11-18 00:01:46,105.12.3.25,"Mozilla/5.0 (Windows NT 10.0; Win64; x64) AppleWebKit/537.36 (KHTML, like Gecko) Chrome/95.0.4638.69 Safari/537.36",WebKit,Chrome,95.0.4638.69,Windows,10.0,dea0c026f67335fbc761b19bc27fdecd
4,1,"""",image-keyboard-response,60,421606,0.0-9.0-1.4,6121397b03ca9997c36260fb,61959741cbff6ce92d351fcf,619597ac3511476c5ef595cb,6121397b03ca9997c36260fb,61959741cbff6ce92d351fcf,619597ac3511476c5ef595cb,HARD,"""","""","""","""",1032.3000001907349,img/flower_left.png,j,response,"""","""",j,1,"""",1,2021-11-18 00:01:46,105.12.3.25,"Mozilla/5.0 (Windows NT 10.0; Win64; x64) AppleWebKit/537.36 (KHTML, like Gecko) Chrome/95.0.4638.69 Safari/537.36",WebKit,Chrome,95.0.4638.69,Windows,10.0,dea0c026f67335fbc761b19bc27fdecd
4,1,"""",image-keyboard-response,61,422868,0.0-9.0-0.5,6121397b03ca9997c36260fb,61959741cbff6ce92d351fcf,619597ac3511476c5ef595cb,6121397b03ca9997c36260fb,61959741cbff6ce92d351fcf,619597ac3511476c5ef595cb,HARD,"""","""","""","""",null,img/fixation.png,null,fixation,"""","""","""","""","""",1,2021-11-18 00:01:46,105.12.3.25,"Mozilla/5.0 (Windows NT 10.0; Win64; x64) AppleWebKit/537.36 (KHTML, like Gecko) Chrome/95.0.4638.69 Safari/537.36",WebKit,Chrome,95.0.4638.69,Windows,10.0,dea0c026f67335fbc761b19bc27fdecd
4,1,"""",image-keyboard-response,62,423737,0.0-9.0-1.5,6121397b03ca9997c36260fb,61959741cbff6ce92d351fcf,619597ac3511476c5ef595cb,6121397b03ca9997c36260fb,61959741cbff6ce92d351fcf,619597ac3511476c5ef595cb,HARD,"""","""","""","""",865.5,img/flower_left.png,j,response,"""","""",j,1,"""",1,2021-11-18 00:01:46,105.12.3.25,"Mozilla/5.0 (Windows NT 10.0; Win64; x64) AppleWebKit/537.36 (KHTML, like Gecko) Chrome/95.0.4638.69 Safari/537.36",WebKit,Chrome,95.0.4638.69,Windows,10.0,dea0c026f67335fbc761b19bc27fdecd
4,1,"""",image-keyboard-response,63,424740,0.0-9.0-0.6,6121397b03ca9997c36260fb,61959741cbff6ce92d351fcf,619597ac3511476c5ef595cb,6121397b03ca9997c36260fb,61959741cbff6ce92d351fcf,619597ac3511476c5ef595cb,HARD,"""","""","""","""",null,img/fixation.png,null,fixation,"""","""","""","""","""",1,2021-11-18 00:01:46,105.12.3.25,"Mozilla/5.0 (Windows NT 10.0; Win64; x64) AppleWebKit/537.36 (KHTML, like Gecko) Chrome/95.0.4638.69 Safari/537.36",WebKit,Chrome,95.0.4638.69,Windows,10.0,dea0c026f67335fbc761b19bc27fdecd
4,1,"""",image-keyboard-response,64,425458,0.0-9.0-1.6,6121397b03ca9997c36260fb,61959741cbff6ce92d351fcf,619597ac3511476c5ef595cb,6121397b03ca9997c36260fb,61959741cbff6ce92d351fcf,619597ac3511476c5ef595cb,HARD,"""","""","""","""",715,img/flower_left.png,j,response,"""","""",j,1,"""",1,2021-11-18 00:01:46,105.12.3.25,"Mozilla/5.0 (Windows NT 10.0; Win64; x64) AppleWebKit/537.36 (KHTML, like Gecko) Chrome/95.0.4638.69 Safari/537.36",WebKit,Chrome,95.0.4638.69,Windows,10.0,dea0c026f67335fbc761b19bc27fdecd
4,1,"""",image-keyboard-response,65,425714,0.0-9.0-0.7,6121397b03ca9997c36260fb,61959741cbff6ce92d351fcf,619597ac3511476c5ef595cb,6121397b03ca9997c36260fb,61959741cbff6ce92d351fcf,619597ac3511476c5ef595cb,HARD,"""","""","""","""",null,img/fixation.png,null,fixation,"""","""","""","""","""",1,2021-11-18 00:01:46,105.12.3.25,"Mozilla/5.0 (Windows NT 10.0; Win64; x64) AppleWebKit/537.36 (KHTML, like Gecko) Chrome/95.0.4638.69 Safari/537.36",WebKit,Chrome,95.0.4638.69,Windows,10.0,dea0c026f67335fbc761b19bc27fdecd
4,1,"""",image-keyboard-response,66,426551,0.0-9.0-1.7,6121397b03ca9997c36260fb,61959741cbff6ce92d351fcf,619597ac3511476c5ef595cb,6121397b03ca9997c36260fb,61959741cbff6ce92d351fcf,619597ac3511476c5ef595cb,HARD,"""","""","""","""",834.5999999046326,img/flower_left.png,j,response,"""","""",j,1,"""",1,2021-11-18 00:01:46,105.12.3.25,"Mozilla/5.0 (Windows NT 10.0; Win64; x64) AppleWebKit/537.36 (KHTML, like Gecko) Chrome/95.0.4638.69 Safari/537.36",WebKit,Chrome,95.0.4638.69,Windows,10.0,dea0c026f67335fbc761b19bc27fdecd
4,1,"""",image-keyboard-response,67,428560,0.0-9.0-0.8,6121397b03ca9997c36260fb,61959741cbff6ce92d351fcf,619597ac3511476c5ef595cb,6121397b03ca9997c36260fb,61959741cbff6ce92d351fcf,619597ac3511476c5ef595cb,HARD,"""","""","""","""",null,img/fixation.png,null,fixation,"""","""","""","""","""",1,2021-11-18 00:01:46,105.12.3.25,"Mozilla/5.0 (Windows NT 10.0; Win64; x64) AppleWebKit/537.36 (KHTML, like Gecko) Chrome/95.0.4638.69 Safari/537.36",WebKit,Chrome,95.0.4638.69,Windows,10.0,dea0c026f67335fbc761b19bc27fdecd
4,1,"""",image-keyboard-response,68,430426,0.0-9.0-1.8,6121397b03ca9997c36260fb,61959741cbff6ce92d351fcf,619597ac3511476c5ef595cb,6121397b03ca9997c36260fb,61959741cbff6ce92d351fcf,619597ac3511476c5ef595cb,HARD,"""","""","""","""",1854.5999999046326,img/heart_right.png,j,response,"""","""",j,1,"""",1,2021-11-18 00:01:46,105.12.3.25,"Mozilla/5.0 (Windows NT 10.0; Win64; x64) AppleWebKit/537.36 (KHTML, like Gecko) Chrome/95.0.4638.69 Safari/537.36",WebKit,Chrome,95.0.4638.69,Windows,10.0,dea0c026f67335fbc761b19bc27fdecd
4,1,"""",image-keyboard-response,69,430938,0.0-9.0-0.9,6121397b03ca9997c36260fb,61959741cbff6ce92d351fcf,619597ac3511476c5ef595cb,6121397b03ca9997c36260fb,61959741cbff6ce92d351fcf,619597ac3511476c5ef595cb,HARD,"""","""","""","""",null,img/fixation.png,null,fixation,"""","""","""","""","""",1,2021-11-18 00:01:46,105.12.3.25,"Mozilla/5.0 (Windows NT 10.0; Win64; x64) AppleWebKit/537.36 (KHTML, like Gecko) Chrome/95.0.4638.69 Safari/537.36",WebKit,Chrome,95.0.4638.69,Windows,10.0,dea0c026f67335fbc761b19bc27fdecd
4,1,"""",image-keyboard-response,70,431955,0.0-9.0-1.9,6121397b03ca9997c36260fb,61959741cbff6ce92d351fcf,619597ac3511476c5ef595cb,6121397b03ca9997c36260fb,61959741cbff6ce92d351fcf,619597ac3511476c5ef595cb,HARD,"""","""","""","""",1013.3999996185303,img/heart_left.png,f,response,"""","""",f,1,"""",1,2021-11-18 00:01:46,105.12.3.25,"Mozilla/5.0 (Windows NT 10.0; Win64; x64) AppleWebKit/537.36 (KHTML, like Gecko) Chrome/95.0.4638.69 Safari/537.36",WebKit,Chrome,95.0.4638.69,Windows,10.0,dea0c026f67335fbc761b19bc27fdecd
4,1,"""",html-keyboard-response,71,438491,0.0-10.0,6121397b03ca9997c36260fb,61959741cbff6ce92d351fcf,619597ac3511476c5ef595cb,6121397b03ca9997c36260fb,61959741cbff6ce92d351fcf,619597ac3511476c5ef595cb,HARD,"""","""","""","""",6532.699999809265,"<p>You responded correctly on 100% of the trials.</p>
      <p>Your average response time was 1245ms.</p>
      <p>Press any key to begin Block 2!</p>",m,debrief,"""","""","""","""","""","""",2021-11-18 00:01:46,105.12.3.25,"Mozilla/5.0 (Windows NT 10.0; Win64; x64) AppleWebKit/537.36 (KHTML, like Gecko) Chrome/95.0.4638.69 Safari/537.36",WebKit,Chrome,95.0.4638.69,Windows,10.0,dea0c026f67335fbc761b19bc27fdecd
4,1,"""",html-button-response,72,448601,0.0-11.0,6121397b03ca9997c36260fb,61959741cbff6ce92d351fcf,619597ac3511476c5ef595cb,6121397b03ca9997c36260fb,61959741cbff6ce92d351fcf,619597ac3511476c5ef595cb,HARD,"""","""","""","""",10107.800000190735,Block 2,0,"""","""","""","""","""","""","""",2021-11-18 00:01:46,105.12.3.25,"Mozilla/5.0 (Windows NT 10.0; Win64; x64) AppleWebKit/537.36 (KHTML, like Gecko) Chrome/95.0.4638.69 Safari/537.36",WebKit,Chrome,95.0.4638.69,Windows,10.0,dea0c026f67335fbc761b19bc27fdecd
4,1,"""",image-keyboard-response,73,452369,0.0-12.0-0.0,6121397b03ca9997c36260fb,61959741cbff6ce92d351fcf,619597ac3511476c5ef595cb,6121397b03ca9997c36260fb,61959741cbff6ce92d351fcf,619597ac3511476c5ef595cb,HARD,"""","""","""","""",null,img/fixation.png,null,fixation,"""","""","""","""","""",2,2021-11-18 00:01:46,105.12.3.25,"Mozilla/5.0 (Windows NT 10.0; Win64; x64) AppleWebKit/537.36 (KHTML, like Gecko) Chrome/95.0.4638.69 Safari/537.36",WebKit,Chrome,95.0.4638.69,Windows,10.0,dea0c026f67335fbc761b19bc27fdecd
4,1,"""",image-keyboard-response,74,453900,0.0-12.0-1.0,6121397b03ca9997c36260fb,61959741cbff6ce92d351fcf,619597ac3511476c5ef595cb,6121397b03ca9997c36260fb,61959741cbff6ce92d351fcf,619597ac3511476c5ef595cb,HARD,"""","""","""","""",1525.6999998092651,img/heart_left.png,f,response,"""","""",f,1,"""",2,2021-11-18 00:01:46,105.12.3.25,"Mozilla/5.0 (Windows NT 10.0; Win64; x64) AppleWebKit/537.36 (KHTML, like Gecko) Chrome/95.0.4638.69 Safari/537.36",WebKit,Chrome,95.0.4638.69,Windows,10.0,dea0c026f67335fbc761b19bc27fdecd
4,1,"""",image-keyboard-response,75,455154,0.0-12.0-0.1,6121397b03ca9997c36260fb,61959741cbff6ce92d351fcf,619597ac3511476c5ef595cb,6121397b03ca9997c36260fb,61959741cbff6ce92d351fcf,619597ac3511476c5ef595cb,HARD,"""","""","""","""",null,img/fixation.png,null,fixation,"""","""","""","""","""",2,2021-11-18 00:01:46,105.12.3.25,"Mozilla/5.0 (Windows NT 10.0; Win64; x64) AppleWebKit/537.36 (KHTML, like Gecko) Chrome/95.0.4638.69 Safari/537.36",WebKit,Chrome,95.0.4638.69,Windows,10.0,dea0c026f67335fbc761b19bc27fdecd
4,1,"""",image-keyboard-response,76,455805,0.0-12.0-1.1,6121397b03ca9997c36260fb,61959741cbff6ce92d351fcf,619597ac3511476c5ef595cb,6121397b03ca9997c36260fb,61959741cbff6ce92d351fcf,619597ac3511476c5ef595cb,HARD,"""","""","""","""",647.3000001907349,img/heart_left.png,f,response,"""","""",f,1,"""",2,2021-11-18 00:01:46,105.12.3.25,"Mozilla/5.0 (Windows NT 10.0; Win64; x64) AppleWebKit/537.36 (KHTML, like Gecko) Chrome/95.0.4638.69 Safari/537.36",WebKit,Chrome,95.0.4638.69,Windows,10.0,dea0c026f67335fbc761b19bc27fdecd
4,1,"""",image-keyboard-response,77,457313,0.0-12.0-0.2,6121397b03ca9997c36260fb,61959741cbff6ce92d351fcf,619597ac3511476c5ef595cb,6121397b03ca9997c36260fb,61959741cbff6ce92d351fcf,619597ac3511476c5ef595cb,HARD,"""","""","""","""",null,img/fixation.png,null,fixation,"""","""","""","""","""",2,2021-11-18 00:01:46,105.12.3.25,"Mozilla/5.0 (Windows NT 10.0; Win64; x64) AppleWebKit/537.36 (KHTML, like Gecko) Chrome/95.0.4638.69 Safari/537.36",WebKit,Chrome,95.0.4638.69,Windows,10.0,dea0c026f67335fbc761b19bc27fdecd
4,1,"""",image-keyboard-response,78,458087,0.0-12.0-1.2,6121397b03ca9997c36260fb,61959741cbff6ce92d351fcf,619597ac3511476c5ef595cb,6121397b03ca9997c36260fb,61959741cbff6ce92d351fcf,619597ac3511476c5ef595cb,HARD,"""","""","""","""",771.3999996185303,img/flower_left.png,j,response,"""","""",j,1,"""",2,2021-11-18 00:01:46,105.12.3.25,"Mozilla/5.0 (Windows NT 10.0; Win64; x64) AppleWebKit/537.36 (KHTML, like Gecko) Chrome/95.0.4638.69 Safari/537.36",WebKit,Chrome,95.0.4638.69,Windows,10.0,dea0c026f67335fbc761b19bc27fdecd
4,1,"""",image-keyboard-response,79,458594,0.0-12.0-0.3,6121397b03ca9997c36260fb,61959741cbff6ce92d351fcf,619597ac3511476c5ef595cb,6121397b03ca9997c36260fb,61959741cbff6ce92d351fcf,619597ac3511476c5ef595cb,HARD,"""","""","""","""",null,img/fixation.png,null,fixation,"""","""","""","""","""",2,2021-11-18 00:01:46,105.12.3.25,"Mozilla/5.0 (Windows NT 10.0; Win64; x64) AppleWebKit/537.36 (KHTML, like Gecko) Chrome/95.0.4638.69 Safari/537.36",WebKit,Chrome,95.0.4638.69,Windows,10.0,dea0c026f67335fbc761b19bc27fdecd
4,1,"""",image-keyboard-response,80,459275,0.0-12.0-1.3,6121397b03ca9997c36260fb,61959741cbff6ce92d351fcf,619597ac3511476c5ef595cb,6121397b03ca9997c36260fb,61959741cbff6ce92d351fcf,619597ac3511476c5ef595cb,HARD,"""","""","""","""",678.2999997138977,img/flower_left.png,j,response,"""","""",j,1,"""",2,2021-11-18 00:01:46,105.12.3.25,"Mozilla/5.0 (Windows NT 10.0; Win64; x64) AppleWebKit/537.36 (KHTML, like Gecko) Chrome/95.0.4638.69 Safari/537.36",WebKit,Chrome,95.0.4638.69,Windows,10.0,dea0c026f67335fbc761b19bc27fdecd
4,1,"""",image-keyboard-response,81,461033,0.0-12.0-0.4,6121397b03ca9997c36260fb,61959741cbff6ce92d351fcf,619597ac3511476c5ef595cb,6121397b03ca9997c36260fb,61959741cbff6ce92d351fcf,619597ac3511476c5ef595cb,HARD,"""","""","""","""",null,img/fixation.png,null,fixation,"""","""","""","""","""",2,2021-11-18 00:01:46,105.12.3.25,"Mozilla/5.0 (Windows NT 10.0; Win64; x64) AppleWebKit/537.36 (KHTML, like Gecko) Chrome/95.0.4638.69 Safari/537.36",WebKit,Chrome,95.0.4638.69,Windows,10.0,dea0c026f67335fbc761b19bc27fdecd
4,1,"""",image-keyboard-response,82,462074,0.0-12.0-1.4,6121397b03ca9997c36260fb,61959741cbff6ce92d351fcf,619597ac3511476c5ef595cb,6121397b03ca9997c36260fb,61959741cbff6ce92d351fcf,619597ac3511476c5ef595cb,HARD,"""","""","""","""",1031.4000000953674,img/heart_left.png,f,response,"""","""",f,1,"""",2,2021-11-18 00:01:46,105.12.3.25,"Mozilla/5.0 (Windows NT 10.0; Win64; x64) AppleWebKit/537.36 (KHTML, like Gecko) Chrome/95.0.4638.69 Safari/537.36",WebKit,Chrome,95.0.4638.69,Windows,10.0,dea0c026f67335fbc761b19bc27fdecd
4,1,"""",image-keyboard-response,83,463080,0.0-12.0-0.5,6121397b03ca9997c36260fb,61959741cbff6ce92d351fcf,619597ac3511476c5ef595cb,6121397b03ca9997c36260fb,61959741cbff6ce92d351fcf,619597ac3511476c5ef595cb,HARD,"""","""","""","""",null,img/fixation.png,null,fixation,"""","""","""","""","""",2,2021-11-18 00:01:46,105.12.3.25,"Mozilla/5.0 (Windows NT 10.0; Win64; x64) AppleWebKit/537.36 (KHTML, like Gecko) Chrome/95.0.4638.69 Safari/537.36",WebKit,Chrome,95.0.4638.69,Windows,10.0,dea0c026f67335fbc761b19bc27fdecd
4,1,"""",image-keyboard-response,84,463875,0.0-12.0-1.5,6121397b03ca9997c36260fb,61959741cbff6ce92d351fcf,619597ac3511476c5ef595cb,6121397b03ca9997c36260fb,61959741cbff6ce92d351fcf,619597ac3511476c5ef595cb,HARD,"""","""","""","""",792.8000001907349,img/flower_left.png,j,response,"""","""",j,1,"""",2,2021-11-18 00:01:46,105.12.3.25,"Mozilla/5.0 (Windows NT 10.0; Win64; x64) AppleWebKit/537.36 (KHTML, like Gecko) Chrome/95.0.4638.69 Safari/537.36",WebKit,Chrome,95.0.4638.69,Windows,10.0,dea0c026f67335fbc761b19bc27fdecd
4,1,"""",image-keyboard-response,85,465883,0.0-12.0-0.6,6121397b03ca9997c36260fb,61959741cbff6ce92d351fcf,619597ac3511476c5ef595cb,6121397b03ca9997c36260fb,61959741cbff6ce92d351fcf,619597ac3511476c5ef595cb,HARD,"""","""","""","""",null,img/fixation.png,null,fixation,"""","""","""","""","""",2,2021-11-18 00:01:46,105.12.3.25,"Mozilla/5.0 (Windows NT 10.0; Win64; x64) AppleWebKit/537.36 (KHTML, like Gecko) Chrome/95.0.4638.69 Safari/537.36",WebKit,Chrome,95.0.4638.69,Windows,10.0,dea0c026f67335fbc761b19bc27fdecd
4,1,"""",image-keyboard-response,86,466835,0.0-12.0-1.6,6121397b03ca9997c36260fb,61959741cbff6ce92d351fcf,619597ac3511476c5ef595cb,6121397b03ca9997c36260fb,61959741cbff6ce92d351fcf,619597ac3511476c5ef595cb,HARD,"""","""","""","""",949.9000000953674,img/heart_left.png,f,response,"""","""",f,1,"""",2,2021-11-18 00:01:46,105.12.3.25,"Mozilla/5.0 (Windows NT 10.0; Win64; x64) AppleWebKit/537.36 (KHTML, like Gecko) Chrome/95.0.4638.69 Safari/537.36",WebKit,Chrome,95.0.4638.69,Windows,10.0,dea0c026f67335fbc761b19bc27fdecd
4,1,"""",image-keyboard-response,87,468342,0.0-12.0-0.7,6121397b03ca9997c36260fb,61959741cbff6ce92d351fcf,619597ac3511476c5ef595cb,6121397b03ca9997c36260fb,61959741cbff6ce92d351fcf,619597ac3511476c5ef595cb,HARD,"""","""","""","""",null,img/fixation.png,null,fixation,"""","""","""","""","""",2,2021-11-18 00:01:46,105.12.3.25,"Mozilla/5.0 (Windows NT 10.0; Win64; x64) AppleWebKit/537.36 (KHTML, like Gecko) Chrome/95.0.4638.69 Safari/537.36",WebKit,Chrome,95.0.4638.69,Windows,10.0,dea0c026f67335fbc761b19bc27fdecd
4,1,"""",image-keyboard-response,88,469518,0.0-12.0-1.7,6121397b03ca9997c36260fb,61959741cbff6ce92d351fcf,619597ac3511476c5ef595cb,6121397b03ca9997c36260fb,61959741cbff6ce92d351fcf,619597ac3511476c5ef595cb,HARD,"""","""","""","""",1172.8000001907349,img/heart_right.png,j,response,"""","""",j,1,"""",2,2021-11-18 00:01:46,105.12.3.25,"Mozilla/5.0 (Windows NT 10.0; Win64; x64) AppleWebKit/537.36 (KHTML, like Gecko) Chrome/95.0.4638.69 Safari/537.36",WebKit,Chrome,95.0.4638.69,Windows,10.0,dea0c026f67335fbc761b19bc27fdecd
4,1,"""",image-keyboard-response,89,470783,0.0-12.0-0.8,6121397b03ca9997c36260fb,61959741cbff6ce92d351fcf,619597ac3511476c5ef595cb,6121397b03ca9997c36260fb,61959741cbff6ce92d351fcf,619597ac3511476c5ef595cb,HARD,"""","""","""","""",null,img/fixation.png,null,fixation,"""","""","""","""","""",2,2021-11-18 00:01:46,105.12.3.25,"Mozilla/5.0 (Windows NT 10.0; Win64; x64) AppleWebKit/537.36 (KHTML, like Gecko) Chrome/95.0.4638.69 Safari/537.36",WebKit,Chrome,95.0.4638.69,Windows,10.0,dea0c026f67335fbc761b19bc27fdecd
4,1,"""",image-keyboard-response,90,471464,0.0-12.0-1.8,6121397b03ca9997c36260fb,61959741cbff6ce92d351fcf,619597ac3511476c5ef595cb,6121397b03ca9997c36260fb,61959741cbff6ce92d351fcf,619597ac3511476c5ef595cb,HARD,"""","""","""","""",677.6999998092651,img/flower_right.png,f,response,"""","""",f,1,"""",2,2021-11-18 00:01:46,105.12.3.25,"Mozilla/5.0 (Windows NT 10.0; Win64; x64) AppleWebKit/537.36 (KHTML, like Gecko) Chrome/95.0.4638.69 Safari/537.36",WebKit,Chrome,95.0.4638.69,Windows,10.0,dea0c026f67335fbc761b19bc27fdecd
4,1,"""",image-keyboard-response,91,471970,0.0-12.0-0.9,6121397b03ca9997c36260fb,61959741cbff6ce92d351fcf,619597ac3511476c5ef595cb,6121397b03ca9997c36260fb,61959741cbff6ce92d351fcf,619597ac3511476c5ef595cb,HARD,"""","""","""","""",null,img/fixation.png,null,fixation,"""","""","""","""","""",2,2021-11-18 00:01:46,105.12.3.25,"Mozilla/5.0 (Windows NT 10.0; Win64; x64) AppleWebKit/537.36 (KHTML, like Gecko) Chrome/95.0.4638.69 Safari/537.36",WebKit,Chrome,95.0.4638.69,Windows,10.0,dea0c026f67335fbc761b19bc27fdecd
4,1,"""",image-keyboard-response,92,473102,0.0-12.0-1.9,6121397b03ca9997c36260fb,61959741cbff6ce92d351fcf,619597ac3511476c5ef595cb,6121397b03ca9997c36260fb,61959741cbff6ce92d351fcf,619597ac3511476c5ef595cb,HARD,"""","""","""","""",1129,img/heart_left.png,f,response,"""","""",f,1,"""",2,2021-11-18 00:01:46,105.12.3.25,"Mozilla/5.0 (Windows NT 10.0; Win64; x64) AppleWebKit/537.36 (KHTML, like Gecko) Chrome/95.0.4638.69 Safari/537.36",WebKit,Chrome,95.0.4638.69,Windows,10.0,dea0c026f67335fbc761b19bc27fdecd
4,1,"""",html-keyboard-response,93,476357,0.0-13.0,6121397b03ca9997c36260fb,61959741cbff6ce92d351fcf,619597ac3511476c5ef595cb,6121397b03ca9997c36260fb,61959741cbff6ce92d351fcf,619597ac3511476c5ef595cb,HARD,"""","""","""","""",3245.6000003814697,"<p>You responded correctly on 100% of the trials.</p>
      <p>Your average response time was 938ms.</p>
      <p>Press any key to begin Block 3!</p>",b,debrief,"""","""","""","""","""","""",2021-11-18 00:01:46,105.12.3.25,"Mozilla/5.0 (Windows NT 10.0; Win64; x64) AppleWebKit/537.36 (KHTML, like Gecko) Chrome/95.0.4638.69 Safari/537.36",WebKit,Chrome,95.0.4638.69,Windows,10.0,dea0c026f67335fbc761b19bc27fdecd
4,1,"""",html-button-response,94,481650,0.0-14.0,6121397b03ca9997c36260fb,61959741cbff6ce92d351fcf,619597ac3511476c5ef595cb,6121397b03ca9997c36260fb,61959741cbff6ce92d351fcf,619597ac3511476c5ef595cb,HARD,"""","""","""","""",5291.400000095367,Block 3,0,"""","""","""","""","""","""","""",2021-11-18 00:01:46,105.12.3.25,"Mozilla/5.0 (Windows NT 10.0; Win64; x64) AppleWebKit/537.36 (KHTML, like Gecko) Chrome/95.0.4638.69 Safari/537.36",WebKit,Chrome,95.0.4638.69,Windows,10.0,dea0c026f67335fbc761b19bc27fdecd
4,1,"""",image-keyboard-response,95,485161,0.0-15.0-0.0,6121397b03ca9997c36260fb,61959741cbff6ce92d351fcf,619597ac3511476c5ef595cb,6121397b03ca9997c36260fb,61959741cbff6ce92d351fcf,619597ac3511476c5ef595cb,HARD,"""","""","""","""",null,img/fixation.png,null,fixation,"""","""","""","""","""",3,2021-11-18 00:01:46,105.12.3.25,"Mozilla/5.0 (Windows NT 10.0; Win64; x64) AppleWebKit/537.36 (KHTML, like Gecko) Chrome/95.0.4638.69 Safari/537.36",WebKit,Chrome,95.0.4638.69,Windows,10.0,dea0c026f67335fbc761b19bc27fdecd
4,1,"""",image-keyboard-response,96,486664,0.0-15.0-1.0,6121397b03ca9997c36260fb,61959741cbff6ce92d351fcf,619597ac3511476c5ef595cb,6121397b03ca9997c36260fb,61959741cbff6ce92d351fcf,619597ac3511476c5ef595cb,HARD,"""","""","""","""",1498.6000003814697,img/flower_right.png,f,response,"""","""",f,1,"""",3,2021-11-18 00:01:46,105.12.3.25,"Mozilla/5.0 (Windows NT 10.0; Win64; x64) AppleWebKit/537.36 (KHTML, like Gecko) Chrome/95.0.4638.69 Safari/537.36",WebKit,Chrome,95.0.4638.69,Windows,10.0,dea0c026f67335fbc761b19bc27fdecd
4,1,"""",image-keyboard-response,97,487920,0.0-15.0-0.1,6121397b03ca9997c36260fb,61959741cbff6ce92d351fcf,619597ac3511476c5ef595cb,6121397b03ca9997c36260fb,61959741cbff6ce92d351fcf,619597ac3511476c5ef595cb,HARD,"""","""","""","""",null,img/fixation.png,null,fixation,"""","""","""","""","""",3,2021-11-18 00:01:46,105.12.3.25,"Mozilla/5.0 (Windows NT 10.0; Win64; x64) AppleWebKit/537.36 (KHTML, like Gecko) Chrome/95.0.4638.69 Safari/537.36",WebKit,Chrome,95.0.4638.69,Windows,10.0,dea0c026f67335fbc761b19bc27fdecd
4,1,"""",image-keyboard-response,98,488840,0.0-15.0-1.1,6121397b03ca9997c36260fb,61959741cbff6ce92d351fcf,619597ac3511476c5ef595cb,6121397b03ca9997c36260fb,61959741cbff6ce92d351fcf,619597ac3511476c5ef595cb,HARD,"""","""","""","""",915.5999999046326,img/heart_right.png,j,response,"""","""",j,1,"""",3,2021-11-18 00:01:46,105.12.3.25,"Mozilla/5.0 (Windows NT 10.0; Win64; x64) AppleWebKit/537.36 (KHTML, like Gecko) Chrome/95.0.4638.69 Safari/537.36",WebKit,Chrome,95.0.4638.69,Windows,10.0,dea0c026f67335fbc761b19bc27fdecd
4,1,"""",image-keyboard-response,99,490103,0.0-15.0-0.2,6121397b03ca9997c36260fb,61959741cbff6ce92d351fcf,619597ac3511476c5ef595cb,6121397b03ca9997c36260fb,61959741cbff6ce92d351fcf,619597ac3511476c5ef595cb,HARD,"""","""","""","""",null,img/fixation.png,null,fixation,"""","""","""","""","""",3,2021-11-18 00:01:46,105.12.3.25,"Mozilla/5.0 (Windows NT 10.0; Win64; x64) AppleWebKit/537.36 (KHTML, like Gecko) Chrome/95.0.4638.69 Safari/537.36",WebKit,Chrome,95.0.4638.69,Windows,10.0,dea0c026f67335fbc761b19bc27fdecd
4,1,"""",image-keyboard-response,100,491890,0.0-15.0-1.2,6121397b03ca9997c36260fb,61959741cbff6ce92d351fcf,619597ac3511476c5ef595cb,6121397b03ca9997c36260fb,61959741cbff6ce92d351fcf,619597ac3511476c5ef595cb,HARD,"""","""","""","""",1784.5999999046326,img/flower_left.png,j,response,"""","""",j,1,"""",3,2021-11-18 00:01:46,105.12.3.25,"Mozilla/5.0 (Windows NT 10.0; Win64; x64) AppleWebKit/537.36 (KHTML, like Gecko) Chrome/95.0.4638.69 Safari/537.36",WebKit,Chrome,95.0.4638.69,Windows,10.0,dea0c026f67335fbc761b19bc27fdecd
4,1,"""",image-keyboard-response,101,493902,0.0-15.0-0.3,6121397b03ca9997c36260fb,61959741cbff6ce92d351fcf,619597ac3511476c5ef595cb,6121397b03ca9997c36260fb,61959741cbff6ce92d351fcf,619597ac3511476c5ef595cb,HARD,"""","""","""","""",null,img/fixation.png,null,fixation,"""","""","""","""","""",3,2021-11-18 00:01:46,105.12.3.25,"Mozilla/5.0 (Windows NT 10.0; Win64; x64) AppleWebKit/537.36 (KHTML, like Gecko) Chrome/95.0.4638.69 Safari/537.36",WebKit,Chrome,95.0.4638.69,Windows,10.0,dea0c026f67335fbc761b19bc27fdecd
4,1,"""",image-keyboard-response,102,494726,0.0-15.0-1.3,6121397b03ca9997c36260fb,61959741cbff6ce92d351fcf,619597ac3511476c5ef595cb,6121397b03ca9997c36260fb,61959741cbff6ce92d351fcf,619597ac3511476c5ef595cb,HARD,"""","""","""","""",820.2999997138977,img/heart_left.png,f,response,"""","""",f,1,"""",3,2021-11-18 00:01:46,105.12.3.25,"Mozilla/5.0 (Windows NT 10.0; Win64; x64) AppleWebKit/537.36 (KHTML, like Gecko) Chrome/95.0.4638.69 Safari/537.36",WebKit,Chrome,95.0.4638.69,Windows,10.0,dea0c026f67335fbc761b19bc27fdecd
4,1,"""",image-keyboard-response,103,496491,0.0-15.0-0.4,6121397b03ca9997c36260fb,61959741cbff6ce92d351fcf,619597ac3511476c5ef595cb,6121397b03ca9997c36260fb,61959741cbff6ce92d351fcf,619597ac3511476c5ef595cb,HARD,"""","""","""","""",null,img/fixation.png,null,fixation,"""","""","""","""","""",3,2021-11-18 00:01:46,105.12.3.25,"Mozilla/5.0 (Windows NT 10.0; Win64; x64) AppleWebKit/537.36 (KHTML, like Gecko) Chrome/95.0.4638.69 Safari/537.36",WebKit,Chrome,95.0.4638.69,Windows,10.0,dea0c026f67335fbc761b19bc27fdecd
4,1,"""",image-keyboard-response,104,497354,0.0-15.0-1.4,6121397b03ca9997c36260fb,61959741cbff6ce92d351fcf,619597ac3511476c5ef595cb,6121397b03ca9997c36260fb,61959741cbff6ce92d351fcf,619597ac3511476c5ef595cb,HARD,"""","""","""","""",859.7999997138977,img/flower_left.png,j,response,"""","""",j,1,"""",3,2021-11-18 00:01:46,105.12.3.25,"Mozilla/5.0 (Windows NT 10.0; Win64; x64) AppleWebKit/537.36 (KHTML, like Gecko) Chrome/95.0.4638.69 Safari/537.36",WebKit,Chrome,95.0.4638.69,Windows,10.0,dea0c026f67335fbc761b19bc27fdecd
4,1,"""",image-keyboard-response,105,499358,0.0-15.0-0.5,6121397b03ca9997c36260fb,61959741cbff6ce92d351fcf,619597ac3511476c5ef595cb,6121397b03ca9997c36260fb,61959741cbff6ce92d351fcf,619597ac3511476c5ef595cb,HARD,"""","""","""","""",null,img/fixation.png,null,fixation,"""","""","""","""","""",3,2021-11-18 00:01:46,105.12.3.25,"Mozilla/5.0 (Windows NT 10.0; Win64; x64) AppleWebKit/537.36 (KHTML, like Gecko) Chrome/95.0.4638.69 Safari/537.36",WebKit,Chrome,95.0.4638.69,Windows,10.0,dea0c026f67335fbc761b19bc27fdecd
4,1,"""",image-keyboard-response,106,500110,0.0-15.0-1.5,6121397b03ca9997c36260fb,61959741cbff6ce92d351fcf,619597ac3511476c5ef595cb,6121397b03ca9997c36260fb,61959741cbff6ce92d351fcf,619597ac3511476c5ef595cb,HARD,"""","""","""","""",749.0999999046326,img/flower_left.png,j,response,"""","""",j,1,"""",3,2021-11-18 00:01:46,105.12.3.25,"Mozilla/5.0 (Windows NT 10.0; Win64; x64) AppleWebKit/537.36 (KHTML, like Gecko) Chrome/95.0.4638.69 Safari/537.36",WebKit,Chrome,95.0.4638.69,Windows,10.0,dea0c026f67335fbc761b19bc27fdecd
4,1,"""",image-keyboard-response,107,500621,0.0-15.0-0.6,6121397b03ca9997c36260fb,61959741cbff6ce92d351fcf,619597ac3511476c5ef595cb,6121397b03ca9997c36260fb,61959741cbff6ce92d351fcf,619597ac3511476c5ef595cb,HARD,"""","""","""","""",null,img/fixation.png,null,fixation,"""","""","""","""","""",3,2021-11-18 00:01:46,105.12.3.25,"Mozilla/5.0 (Windows NT 10.0; Win64; x64) AppleWebKit/537.36 (KHTML, like Gecko) Chrome/95.0.4638.69 Safari/537.36",WebKit,Chrome,95.0.4638.69,Windows,10.0,dea0c026f67335fbc761b19bc27fdecd
4,1,"""",image-keyboard-response,108,501606,0.0-15.0-1.6,6121397b03ca9997c36260fb,61959741cbff6ce92d351fcf,619597ac3511476c5ef595cb,6121397b03ca9997c36260fb,61959741cbff6ce92d351fcf,619597ac3511476c5ef595cb,HARD,"""","""","""","""",982.0999999046326,img/flower_right.png,f,response,"""","""",f,1,"""",3,2021-11-18 00:01:46,105.12.3.25,"Mozilla/5.0 (Windows NT 10.0; Win64; x64) AppleWebKit/537.36 (KHTML, like Gecko) Chrome/95.0.4638.69 Safari/537.36",WebKit,Chrome,95.0.4638.69,Windows,10.0,dea0c026f67335fbc761b19bc27fdecd
4,1,"""",image-keyboard-response,109,503119,0.0-15.0-0.7,6121397b03ca9997c36260fb,61959741cbff6ce92d351fcf,619597ac3511476c5ef595cb,6121397b03ca9997c36260fb,61959741cbff6ce92d351fcf,619597ac3511476c5ef595cb,HARD,"""","""","""","""",null,img/fixation.png,null,fixation,"""","""","""","""","""",3,2021-11-18 00:01:46,105.12.3.25,"Mozilla/5.0 (Windows NT 10.0; Win64; x64) AppleWebKit/537.36 (KHTML, like Gecko) Chrome/95.0.4638.69 Safari/537.36",WebKit,Chrome,95.0.4638.69,Windows,10.0,dea0c026f67335fbc761b19bc27fdecd
4,1,"""",image-keyboard-response,110,504086,0.0-15.0-1.7,6121397b03ca9997c36260fb,61959741cbff6ce92d351fcf,619597ac3511476c5ef595cb,6121397b03ca9997c36260fb,61959741cbff6ce92d351fcf,619597ac3511476c5ef595cb,HARD,"""","""","""","""",963.3000001907349,img/flower_left.png,j,response,"""","""",j,1,"""",3,2021-11-18 00:01:46,105.12.3.25,"Mozilla/5.0 (Windows NT 10.0; Win64; x64) AppleWebKit/537.36 (KHTML, like Gecko) Chrome/95.0.4638.69 Safari/537.36",WebKit,Chrome,95.0.4638.69,Windows,10.0,dea0c026f67335fbc761b19bc27fdecd
4,1,"""",image-keyboard-response,111,506094,0.0-15.0-0.8,6121397b03ca9997c36260fb,61959741cbff6ce92d351fcf,619597ac3511476c5ef595cb,6121397b03ca9997c36260fb,61959741cbff6ce92d351fcf,619597ac3511476c5ef595cb,HARD,"""","""","""","""",null,img/fixation.png,null,fixation,"""","""","""","""","""",3,2021-11-18 00:01:46,105.12.3.25,"Mozilla/5.0 (Windows NT 10.0; Win64; x64) AppleWebKit/537.36 (KHTML, like Gecko) Chrome/95.0.4638.69 Safari/537.36",WebKit,Chrome,95.0.4638.69,Windows,10.0,dea0c026f67335fbc761b19bc27fdecd
4,1,"""",image-keyboard-response,112,507579,0.0-15.0-1.8,6121397b03ca9997c36260fb,61959741cbff6ce92d351fcf,619597ac3511476c5ef595cb,6121397b03ca9997c36260fb,61959741cbff6ce92d351fcf,619597ac3511476c5ef595cb,HARD,"""","""","""","""",1481.4000000953674,img/flower_left.png,j,response,"""","""",j,1,"""",3,2021-11-18 00:01:46,105.12.3.25,"Mozilla/5.0 (Windows NT 10.0; Win64; x64) AppleWebKit/537.36 (KHTML, like Gecko) Chrome/95.0.4638.69 Safari/537.36",WebKit,Chrome,95.0.4638.69,Windows,10.0,dea0c026f67335fbc761b19bc27fdecd
4,1,"""",image-keyboard-response,113,508592,0.0-15.0-0.9,6121397b03ca9997c36260fb,61959741cbff6ce92d351fcf,619597ac3511476c5ef595cb,6121397b03ca9997c36260fb,61959741cbff6ce92d351fcf,619597ac3511476c5ef595cb,HARD,"""","""","""","""",null,img/fixation.png,null,fixation,"""","""","""","""","""",3,2021-11-18 00:01:46,105.12.3.25,"Mozilla/5.0 (Windows NT 10.0; Win64; x64) AppleWebKit/537.36 (KHTML, like Gecko) Chrome/95.0.4638.69 Safari/537.36",WebKit,Chrome,95.0.4638.69,Windows,10.0,dea0c026f67335fbc761b19bc27fdecd
4,1,"""",image-keyboard-response,114,509239,0.0-15.0-1.9,6121397b03ca9997c36260fb,61959741cbff6ce92d351fcf,619597ac3511476c5ef595cb,6121397b03ca9997c36260fb,61959741cbff6ce92d351fcf,619597ac3511476c5ef595cb,HARD,"""","""","""","""",636.8000001907349,img/flower_left.png,j,response,"""","""",j,1,"""",3,2021-11-18 00:01:46,105.12.3.25,"Mozilla/5.0 (Windows NT 10.0; Win64; x64) AppleWebKit/537.36 (KHTML, like Gecko) Chrome/95.0.4638.69 Safari/537.36",WebKit,Chrome,95.0.4638.69,Windows,10.0,dea0c026f67335fbc761b19bc27fdecd
4,1,"""",html-keyboard-response,115,514920,0.0-16.0,6121397b03ca9997c36260fb,61959741cbff6ce92d351fcf,619597ac3511476c5ef595cb,6121397b03ca9997c36260fb,61959741cbff6ce92d351fcf,619597ac3511476c5ef595cb,HARD,"""","""","""","""",5678.700000286102,"<p>You responded correctly on 100% of the trials.</p>
      <p>Your average response time was 1069ms.</p>
      <p>Press any key to begin the final Block 4!</p>",n,debrief,"""","""","""","""","""","""",2021-11-18 00:01:46,105.12.3.25,"Mozilla/5.0 (Windows NT 10.0; Win64; x64) AppleWebKit/537.36 (KHTML, like Gecko) Chrome/95.0.4638.69 Safari/537.36",WebKit,Chrome,95.0.4638.69,Windows,10.0,dea0c026f67335fbc761b19bc27fdecd
4,1,"""",html-button-response,116,518170,0.0-17.0,6121397b03ca9997c36260fb,61959741cbff6ce92d351fcf,619597ac3511476c5ef595cb,6121397b03ca9997c36260fb,61959741cbff6ce92d351fcf,619597ac3511476c5ef595cb,HARD,"""","""","""","""",3242.2000002861023,Block 4,0,"""","""","""","""","""","""","""",2021-11-18 00:01:46,105.12.3.25,"Mozilla/5.0 (Windows NT 10.0; Win64; x64) AppleWebKit/537.36 (KHTML, like Gecko) Chrome/95.0.4638.69 Safari/537.36",WebKit,Chrome,95.0.4638.69,Windows,10.0,dea0c026f67335fbc761b19bc27fdecd
4,1,"""",image-keyboard-response,117,521183,0.0-18.0-0.0,6121397b03ca9997c36260fb,61959741cbff6ce92d351fcf,619597ac3511476c5ef595cb,6121397b03ca9997c36260fb,61959741cbff6ce92d351fcf,619597ac3511476c5ef595cb,HARD,"""","""","""","""",null,img/fixation.png,null,fixation,"""","""","""","""","""",4,2021-11-18 00:01:46,105.12.3.25,"Mozilla/5.0 (Windows NT 10.0; Win64; x64) AppleWebKit/537.36 (KHTML, like Gecko) Chrome/95.0.4638.69 Safari/537.36",WebKit,Chrome,95.0.4638.69,Windows,10.0,dea0c026f67335fbc761b19bc27fdecd
4,1,"""",image-keyboard-response,118,522258,0.0-18.0-1.0,6121397b03ca9997c36260fb,61959741cbff6ce92d351fcf,619597ac3511476c5ef595cb,6121397b03ca9997c36260fb,61959741cbff6ce92d351fcf,619597ac3511476c5ef595cb,HARD,"""","""","""","""",1063.3000001907349,img/heart_right.png,j,response,"""","""",j,1,"""",4,2021-11-18 00:01:46,105.12.3.25,"Mozilla/5.0 (Windows NT 10.0; Win64; x64) AppleWebKit/537.36 (KHTML, like Gecko) Chrome/95.0.4638.69 Safari/537.36",WebKit,Chrome,95.0.4638.69,Windows,10.0,dea0c026f67335fbc761b19bc27fdecd
4,1,"""",image-keyboard-response,119,522761,0.0-18.0-0.1,6121397b03ca9997c36260fb,61959741cbff6ce92d351fcf,619597ac3511476c5ef595cb,6121397b03ca9997c36260fb,61959741cbff6ce92d351fcf,619597ac3511476c5ef595cb,HARD,"""","""","""","""",null,img/fixation.png,null,fixation,"""","""","""","""","""",4,2021-11-18 00:01:46,105.12.3.25,"Mozilla/5.0 (Windows NT 10.0; Win64; x64) AppleWebKit/537.36 (KHTML, like Gecko) Chrome/95.0.4638.69 Safari/537.36",WebKit,Chrome,95.0.4638.69,Windows,10.0,dea0c026f67335fbc761b19bc27fdecd
4,1,"""",image-keyboard-response,120,523863,0.0-18.0-1.1,6121397b03ca9997c36260fb,61959741cbff6ce92d351fcf,619597ac3511476c5ef595cb,6121397b03ca9997c36260fb,61959741cbff6ce92d351fcf,619597ac3511476c5ef595cb,HARD,"""","""","""","""",1098.6999998092651,img/flower_left.png,f,response,"""","""",j,0,"""",4,2021-11-18 00:01:46,105.12.3.25,"Mozilla/5.0 (Windows NT 10.0; Win64; x64) AppleWebKit/537.36 (KHTML, like Gecko) Chrome/95.0.4638.69 Safari/537.36",WebKit,Chrome,95.0.4638.69,Windows,10.0,dea0c026f67335fbc761b19bc27fdecd
4,1,"""",image-keyboard-response,121,525870,0.0-18.0-0.2,6121397b03ca9997c36260fb,61959741cbff6ce92d351fcf,619597ac3511476c5ef595cb,6121397b03ca9997c36260fb,61959741cbff6ce92d351fcf,619597ac3511476c5ef595cb,HARD,"""","""","""","""",null,img/fixation.png,null,fixation,"""","""","""","""","""",4,2021-11-18 00:01:46,105.12.3.25,"Mozilla/5.0 (Windows NT 10.0; Win64; x64) AppleWebKit/537.36 (KHTML, like Gecko) Chrome/95.0.4638.69 Safari/537.36",WebKit,Chrome,95.0.4638.69,Windows,10.0,dea0c026f67335fbc761b19bc27fdecd
4,1,"""",image-keyboard-response,122,527141,0.0-18.0-1.2,6121397b03ca9997c36260fb,61959741cbff6ce92d351fcf,619597ac3511476c5ef595cb,6121397b03ca9997c36260fb,61959741cbff6ce92d351fcf,619597ac3511476c5ef595cb,HARD,"""","""","""","""",1267.4000000953674,img/heart_right.png,j,response,"""","""",j,1,"""",4,2021-11-18 00:01:46,105.12.3.25,"Mozilla/5.0 (Windows NT 10.0; Win64; x64) AppleWebKit/537.36 (KHTML, like Gecko) Chrome/95.0.4638.69 Safari/537.36",WebKit,Chrome,95.0.4638.69,Windows,10.0,dea0c026f67335fbc761b19bc27fdecd
4,1,"""",image-keyboard-response,123,527396,0.0-18.0-0.3,6121397b03ca9997c36260fb,61959741cbff6ce92d351fcf,619597ac3511476c5ef595cb,6121397b03ca9997c36260fb,61959741cbff6ce92d351fcf,619597ac3511476c5ef595cb,HARD,"""","""","""","""",null,img/fixation.png,null,fixation,"""","""","""","""","""",4,2021-11-18 00:01:46,105.12.3.25,"Mozilla/5.0 (Windows NT 10.0; Win64; x64) AppleWebKit/537.36 (KHTML, like Gecko) Chrome/95.0.4638.69 Safari/537.36",WebKit,Chrome,95.0.4638.69,Windows,10.0,dea0c026f67335fbc761b19bc27fdecd
4,1,"""",image-keyboard-response,124,528099,0.0-18.0-1.3,6121397b03ca9997c36260fb,61959741cbff6ce92d351fcf,619597ac3511476c5ef595cb,6121397b03ca9997c36260fb,61959741cbff6ce92d351fcf,619597ac3511476c5ef595cb,HARD,"""","""","""","""",699.7000002861023,img/heart_right.png,j,response,"""","""",j,1,"""",4,2021-11-18 00:01:46,105.12.3.25,"Mozilla/5.0 (Windows NT 10.0; Win64; x64) AppleWebKit/537.36 (KHTML, like Gecko) Chrome/95.0.4638.69 Safari/537.36",WebKit,Chrome,95.0.4638.69,Windows,10.0,dea0c026f67335fbc761b19bc27fdecd
4,1,"""",image-keyboard-response,125,530118,0.0-18.0-0.4,6121397b03ca9997c36260fb,61959741cbff6ce92d351fcf,619597ac3511476c5ef595cb,6121397b03ca9997c36260fb,61959741cbff6ce92d351fcf,619597ac3511476c5ef595cb,HARD,"""","""","""","""",null,img/fixation.png,null,fixation,"""","""","""","""","""",4,2021-11-18 00:01:46,105.12.3.25,"Mozilla/5.0 (Windows NT 10.0; Win64; x64) AppleWebKit/537.36 (KHTML, like Gecko) Chrome/95.0.4638.69 Safari/537.36",WebKit,Chrome,95.0.4638.69,Windows,10.0,dea0c026f67335fbc761b19bc27fdecd
4,1,"""",image-keyboard-response,126,531438,0.0-18.0-1.4,6121397b03ca9997c36260fb,61959741cbff6ce92d351fcf,619597ac3511476c5ef595cb,6121397b03ca9997c36260fb,61959741cbff6ce92d351fcf,619597ac3511476c5ef595cb,HARD,"""","""","""","""",1314.4000000953674,img/heart_right.png,j,response,"""","""",j,1,"""",4,2021-11-18 00:01:46,105.12.3.25,"Mozilla/5.0 (Windows NT 10.0; Win64; x64) AppleWebKit/537.36 (KHTML, like Gecko) Chrome/95.0.4638.69 Safari/537.36",WebKit,Chrome,95.0.4638.69,Windows,10.0,dea0c026f67335fbc761b19bc27fdecd
4,1,"""",image-keyboard-response,127,532200,0.0-18.0-0.5,6121397b03ca9997c36260fb,61959741cbff6ce92d351fcf,619597ac3511476c5ef595cb,6121397b03ca9997c36260fb,61959741cbff6ce92d351fcf,619597ac3511476c5ef595cb,HARD,"""","""","""","""",null,img/fixation.png,null,fixation,"""","""","""","""","""",4,2021-11-18 00:01:46,105.12.3.25,"Mozilla/5.0 (Windows NT 10.0; Win64; x64) AppleWebKit/537.36 (KHTML, like Gecko) Chrome/95.0.4638.69 Safari/537.36",WebKit,Chrome,95.0.4638.69,Windows,10.0,dea0c026f67335fbc761b19bc27fdecd
4,1,"""",image-keyboard-response,128,532741,0.0-18.0-1.5,6121397b03ca9997c36260fb,61959741cbff6ce92d351fcf,619597ac3511476c5ef595cb,6121397b03ca9997c36260fb,61959741cbff6ce92d351fcf,619597ac3511476c5ef595cb,HARD,"""","""","""","""",538.1999998092651,img/heart_right.png,j,response,"""","""",j,1,"""",4,2021-11-18 00:01:46,105.12.3.25,"Mozilla/5.0 (Windows NT 10.0; Win64; x64) AppleWebKit/537.36 (KHTML, like Gecko) Chrome/95.0.4638.69 Safari/537.36",WebKit,Chrome,95.0.4638.69,Windows,10.0,dea0c026f67335fbc761b19bc27fdecd
4,1,"""",image-keyboard-response,129,534750,0.0-18.0-0.6,6121397b03ca9997c36260fb,61959741cbff6ce92d351fcf,619597ac3511476c5ef595cb,6121397b03ca9997c36260fb,61959741cbff6ce92d351fcf,619597ac3511476c5ef595cb,HARD,"""","""","""","""",null,img/fixation.png,null,fixation,"""","""","""","""","""",4,2021-11-18 00:01:46,105.12.3.25,"Mozilla/5.0 (Windows NT 10.0; Win64; x64) AppleWebKit/537.36 (KHTML, like Gecko) Chrome/95.0.4638.69 Safari/537.36",WebKit,Chrome,95.0.4638.69,Windows,10.0,dea0c026f67335fbc761b19bc27fdecd
4,1,"""",image-keyboard-response,130,536069,0.0-18.0-1.6,6121397b03ca9997c36260fb,61959741cbff6ce92d351fcf,619597ac3511476c5ef595cb,6121397b03ca9997c36260fb,61959741cbff6ce92d351fcf,619597ac3511476c5ef595cb,HARD,"""","""","""","""",1304.5,img/flower_left.png,j,response,"""","""",j,1,"""",4,2021-11-18 00:01:46,105.12.3.25,"Mozilla/5.0 (Windows NT 10.0; Win64; x64) AppleWebKit/537.36 (KHTML, like Gecko) Chrome/95.0.4638.69 Safari/537.36",WebKit,Chrome,95.0.4638.69,Windows,10.0,dea0c026f67335fbc761b19bc27fdecd
4,1,"""",image-keyboard-response,131,537328,0.0-18.0-0.7,6121397b03ca9997c36260fb,61959741cbff6ce92d351fcf,619597ac3511476c5ef595cb,6121397b03ca9997c36260fb,61959741cbff6ce92d351fcf,619597ac3511476c5ef595cb,HARD,"""","""","""","""",null,img/fixation.png,null,fixation,"""","""","""","""","""",4,2021-11-18 00:01:46,105.12.3.25,"Mozilla/5.0 (Windows NT 10.0; Win64; x64) AppleWebKit/537.36 (KHTML, like Gecko) Chrome/95.0.4638.69 Safari/537.36",WebKit,Chrome,95.0.4638.69,Windows,10.0,dea0c026f67335fbc761b19bc27fdecd
4,1,"""",image-keyboard-response,132,538250,0.0-18.0-1.7,6121397b03ca9997c36260fb,61959741cbff6ce92d351fcf,619597ac3511476c5ef595cb,6121397b03ca9997c36260fb,61959741cbff6ce92d351fcf,619597ac3511476c5ef595cb,HARD,"""","""","""","""",919.1999998092651,img/flower_right.png,f,response,"""","""",f,1,"""",4,2021-11-18 00:01:46,105.12.3.25,"Mozilla/5.0 (Windows NT 10.0; Win64; x64) AppleWebKit/537.36 (KHTML, like Gecko) Chrome/95.0.4638.69 Safari/537.36",WebKit,Chrome,95.0.4638.69,Windows,10.0,dea0c026f67335fbc761b19bc27fdecd
4,1,"""",image-keyboard-response,133,539759,0.0-18.0-0.8,6121397b03ca9997c36260fb,61959741cbff6ce92d351fcf,619597ac3511476c5ef595cb,6121397b03ca9997c36260fb,61959741cbff6ce92d351fcf,619597ac3511476c5ef595cb,HARD,"""","""","""","""",null,img/fixation.png,null,fixation,"""","""","""","""","""",4,2021-11-18 00:01:46,105.12.3.25,"Mozilla/5.0 (Windows NT 10.0; Win64; x64) AppleWebKit/537.36 (KHTML, like Gecko) Chrome/95.0.4638.69 Safari/537.36",WebKit,Chrome,95.0.4638.69,Windows,10.0,dea0c026f67335fbc761b19bc27fdecd
4,1,"""",image-keyboard-response,134,540720,0.0-18.0-1.8,6121397b03ca9997c36260fb,61959741cbff6ce92d351fcf,619597ac3511476c5ef595cb,6121397b03ca9997c36260fb,61959741cbff6ce92d351fcf,619597ac3511476c5ef595cb,HARD,"""","""","""","""",959.0999999046326,img/heart_left.png,f,response,"""","""",f,1,"""",4,2021-11-18 00:01:46,105.12.3.25,"Mozilla/5.0 (Windows NT 10.0; Win64; x64) AppleWebKit/537.36 (KHTML, like Gecko) Chrome/95.0.4638.69 Safari/537.36",WebKit,Chrome,95.0.4638.69,Windows,10.0,dea0c026f67335fbc761b19bc27fdecd
4,1,"""",image-keyboard-response,135,542235,0.0-18.0-0.9,6121397b03ca9997c36260fb,61959741cbff6ce92d351fcf,619597ac3511476c5ef595cb,6121397b03ca9997c36260fb,61959741cbff6ce92d351fcf,619597ac3511476c5ef595cb,HARD,"""","""","""","""",null,img/fixation.png,null,fixation,"""","""","""","""","""",4,2021-11-18 00:01:46,105.12.3.25,"Mozilla/5.0 (Windows NT 10.0; Win64; x64) AppleWebKit/537.36 (KHTML, like Gecko) Chrome/95.0.4638.69 Safari/537.36",WebKit,Chrome,95.0.4638.69,Windows,10.0,dea0c026f67335fbc761b19bc27fdecd
4,1,"""",image-keyboard-response,136,543314,0.0-18.0-1.9,6121397b03ca9997c36260fb,61959741cbff6ce92d351fcf,619597ac3511476c5ef595cb,6121397b03ca9997c36260fb,61959741cbff6ce92d351fcf,619597ac3511476c5ef595cb,HARD,"""","""","""","""",1076.7999997138977,img/heart_right.png,j,response,"""","""",j,1,"""",4,2021-11-18 00:01:46,105.12.3.25,"Mozilla/5.0 (Windows NT 10.0; Win64; x64) AppleWebKit/537.36 (KHTML, like Gecko) Chrome/95.0.4638.69 Safari/537.36",WebKit,Chrome,95.0.4638.69,Windows,10.0,dea0c026f67335fbc761b19bc27fdecd
4,1,"""",html-keyboard-response,137,550480,0.0-19.0,6121397b03ca9997c36260fb,61959741cbff6ce92d351fcf,619597ac3511476c5ef595cb,6121397b03ca9997c36260fb,61959741cbff6ce92d351fcf,619597ac3511476c5ef595cb,HARD,"""","""","""","""",7163.900000095367,"<p>You responded correctly on 90% of the trials.</p>
      <p>Your average response time was 1016ms.</p>
      <p>Press any key to finish the cognitive experiment!</p>",n,debrief,"""","""","""","""","""","""",2021-11-18 00:01:46,105.12.3.25,"Mozilla/5.0 (Windows NT 10.0; Win64; x64) AppleWebKit/537.36 (KHTML, like Gecko) Chrome/95.0.4638.69 Safari/537.36",WebKit,Chrome,95.0.4638.69,Windows,10.0,dea0c026f67335fbc761b19bc27fdecd
4,1,"""",html-button-response,138,555575,0.0-20.0,6121397b03ca9997c36260fb,61959741cbff6ce92d351fcf,619597ac3511476c5ef595cb,6121397b03ca9997c36260fb,61959741cbff6ce92d351fcf,619597ac3511476c5ef595cb,HARD,"""","""","""","""",5084.800000190735,"<p>Thank you for your participation! </p><p>The last thing will be a series of questions to capture demographic information.<p><p>When you are ready to answer a few questions, please press START.</p>",0,"""","""","""","""","""","""","""",2021-11-18 00:01:46,105.12.3.25,"Mozilla/5.0 (Windows NT 10.0; Win64; x64) AppleWebKit/537.36 (KHTML, like Gecko) Chrome/95.0.4638.69 Safari/537.36",WebKit,Chrome,95.0.4638.69,Windows,10.0,dea0c026f67335fbc761b19bc27fdecd
4,1,"""",survey-text,139,586311,0.0-21.0,6121397b03ca9997c36260fb,61959741cbff6ce92d351fcf,619597ac3511476c5ef595cb,6121397b03ca9997c36260fb,61959741cbff6ce92d351fcf,619597ac3511476c5ef595cb,HARD,"""","""","""","""",28969.800000190735,"""","{""Q0"":""22"",""Q1"":""04/12/1998"",""Q2"":""Black""}",age,"""","""","""","""","""","""",2021-11-18 00:01:46,105.12.3.25,"Mozilla/5.0 (Windows NT 10.0; Win64; x64) AppleWebKit/537.36 (KHTML, like Gecko) Chrome/95.0.4638.69 Safari/537.36",WebKit,Chrome,95.0.4638.69,Windows,10.0,dea0c026f67335fbc761b19bc27fdecd
4,1,"""",survey-multi-choice,140,624002,0.0-22.0,6121397b03ca9997c36260fb,61959741cbff6ce92d351fcf,619597ac3511476c5ef595cb,6121397b03ca9997c36260fb,61959741cbff6ce92d351fcf,619597ac3511476c5ef595cb,HARD,"""","""","""","""",37685.5,"""","{""Q0"":""High school"",""Q1"":""Non-permanent part-time employment""}",ses,"[0,1]","""","""","""","""","""",2021-11-18 00:01:46,105.12.3.25,"Mozilla/5.0 (Windows NT 10.0; Win64; x64) AppleWebKit/537.36 (KHTML, like Gecko) Chrome/95.0.4638.69 Safari/537.36",WebKit,Chrome,95.0.4638.69,Windows,10.0,dea0c026f67335fbc761b19bc27fdecd
4,1,"""",survey-multi-choice,141,635394,0.0-23.0,6121397b03ca9997c36260fb,61959741cbff6ce92d351fcf,619597ac3511476c5ef595cb,6121397b03ca9997c36260fb,61959741cbff6ce92d351fcf,619597ac3511476c5ef595cb,HARD,"""","""","""","""",11388.699999809265,"""","{""Q0"":""5000""}",income,[0],"""","""","""","""","""",2021-11-18 00:01:46,105.12.3.25,"Mozilla/5.0 (Windows NT 10.0; Win64; x64) AppleWebKit/537.36 (KHTML, like Gecko) Chrome/95.0.4638.69 Safari/537.36",WebKit,Chrome,95.0.4638.69,Windows,10.0,dea0c026f67335fbc761b19bc27fdecd
4,1,"""",survey-multi-choice,142,647939,0.0-24.0,6121397b03ca9997c36260fb,61959741cbff6ce92d351fcf,619597ac3511476c5ef595cb,6121397b03ca9997c36260fb,61959741cbff6ce92d351fcf,619597ac3511476c5ef595cb,HARD,"""","""","""","""",12539.199999809265,"""","{""Q0"":""3""}",household_size,[0],"""","""","""","""","""",2021-11-18 00:01:46,105.12.3.25,"Mozilla/5.0 (Windows NT 10.0; Win64; x64) AppleWebKit/537.36 (KHTML, like Gecko) Chrome/95.0.4638.69 Safari/537.36",WebKit,Chrome,95.0.4638.69,Windows,10.0,dea0c026f67335fbc761b19bc27fdecd
4,1,"""",html-button-response,143,651535,0.0-25.0,6121397b03ca9997c36260fb,61959741cbff6ce92d351fcf,619597ac3511476c5ef595cb,6121397b03ca9997c36260fb,61959741cbff6ce92d351fcf,619597ac3511476c5ef595cb,HARD,"""","""","""","""",3593.4000000953674,<p>Thanks! You have finished the entire study.</p><p>Please press FINISH to save your data and return to Prolific for compensation.</p>,0,"""","""","""","""","""","""","""",2021-11-18 00:01:46,105.12.3.25,"Mozilla/5.0 (Windows NT 10.0; Win64; x64) AppleWebKit/537.36 (KHTML, like Gecko) Chrome/95.0.4638.69 Safari/537.36",WebKit,Chrome,95.0.4638.69,Windows,10.0,dea0c026f67335fbc761b19bc27fdecd
5,1,true,fullscreen,0,11673,0.0-0.0,6169a42a39d8414ac0f0df7c,61959741cbff6ce92d351fcf,619598b7b3822e39e9c37bff,6169a42a39d8414ac0f0df7c,61959741cbff6ce92d351fcf,619598b7b3822e39e9c37bff,HARD,"""","""","""","""","""","""","""","""","""","""","""","""","""","""",2021-11-18 00:05:24,165.0.61.143,"Mozilla/5.0 (Windows NT 10.0; Win64; x64) AppleWebKit/537.36 (KHTML, like Gecko) Chrome/95.0.4638.69 Safari/537.36",WebKit,Chrome,95.0.4638.69,Windows,10.0,dea0c026f67335fbc761b19bc27fdecd
5,1,true,preload,1,15512,0.0-1.0,6169a42a39d8414ac0f0df7c,61959741cbff6ce92d351fcf,619598b7b3822e39e9c37bff,6169a42a39d8414ac0f0df7c,61959741cbff6ce92d351fcf,619598b7b3822e39e9c37bff,HARD,false,[],[],[],"""","""","""","""","""","""","""","""","""","""",2021-11-18 00:05:24,165.0.61.143,"Mozilla/5.0 (Windows NT 10.0; Win64; x64) AppleWebKit/537.36 (KHTML, like Gecko) Chrome/95.0.4638.69 Safari/537.36",WebKit,Chrome,95.0.4638.69,Windows,10.0,dea0c026f67335fbc761b19bc27fdecd
5,1,"""",html-button-response,2,83366,0.0-2.0,6169a42a39d8414ac0f0df7c,61959741cbff6ce92d351fcf,619598b7b3822e39e9c37bff,6169a42a39d8414ac0f0df7c,61959741cbff6ce92d351fcf,619598b7b3822e39e9c37bff,HARD,"""","""","""","""",67851.60000000149,<p>Welcome! Thank you so much for participating in this study. Press START to begin.</p><br>,0,"""","""","""","""","""","""","""",2021-11-18 00:05:24,165.0.61.143,"Mozilla/5.0 (Windows NT 10.0; Win64; x64) AppleWebKit/537.36 (KHTML, like Gecko) Chrome/95.0.4638.69 Safari/537.36",WebKit,Chrome,95.0.4638.69,Windows,10.0,dea0c026f67335fbc761b19bc27fdecd
5,1,"""",html-button-response,3,137688,0.0-3.0,6169a42a39d8414ac0f0df7c,61959741cbff6ce92d351fcf,619598b7b3822e39e9c37bff,6169a42a39d8414ac0f0df7c,61959741cbff6ce92d351fcf,619598b7b3822e39e9c37bff,HARD,"""","""","""","""",54316.10000000149,"<p>First, you will review a series of hypothetical scenarios each related to finances</p><br><p>Please think about each scenario carefully for approximately <strong>one minute</strong>.</p><br><p>Please reflect and process the scenario as if it were actually happening. Questions will be there to help guide your thinking.</p><p>When you are ready to begin, please press REVIEW to begin the study.",0,"""","""","""","""","""","""","""",2021-11-18 00:05:24,165.0.61.143,"Mozilla/5.0 (Windows NT 10.0; Win64; x64) AppleWebKit/537.36 (KHTML, like Gecko) Chrome/95.0.4638.69 Safari/537.36",WebKit,Chrome,95.0.4638.69,Windows,10.0,dea0c026f67335fbc761b19bc27fdecd
5,1,"""",image-keyboard-response,4,140225,0.0-4.0-0.0,6169a42a39d8414ac0f0df7c,61959741cbff6ce92d351fcf,619598b7b3822e39e9c37bff,6169a42a39d8414ac0f0df7c,61959741cbff6ce92d351fcf,619598b7b3822e39e9c37bff,HARD,"""","""","""","""",null,img/fixation.png,null,fixation,"""","""","""","""","""","""",2021-11-18 00:05:24,165.0.61.143,"Mozilla/5.0 (Windows NT 10.0; Win64; x64) AppleWebKit/537.36 (KHTML, like Gecko) Chrome/95.0.4638.69 Safari/537.36",WebKit,Chrome,95.0.4638.69,Windows,10.0,dea0c026f67335fbc761b19bc27fdecd
5,1,"""",image-keyboard-response,5,170240,0.0-4.0-1.0,6169a42a39d8414ac0f0df7c,61959741cbff6ce92d351fcf,619598b7b3822e39e9c37bff,6169a42a39d8414ac0f0df7c,61959741cbff6ce92d351fcf,619598b7b3822e39e9c37bff,HARD,"""","""","""","""",null,scarcity/easy/scenario2.png,null,"""","""","""","""","""","""","""",2021-11-18 00:05:24,165.0.61.143,"Mozilla/5.0 (Windows NT 10.0; Win64; x64) AppleWebKit/537.36 (KHTML, like Gecko) Chrome/95.0.4638.69 Safari/537.36",WebKit,Chrome,95.0.4638.69,Windows,10.0,dea0c026f67335fbc761b19bc27fdecd
5,1,"""",survey-multi-choice,6,195233,0.0-4.0-2.0,6169a42a39d8414ac0f0df7c,61959741cbff6ce92d351fcf,619598b7b3822e39e9c37bff,6169a42a39d8414ac0f0df7c,61959741cbff6ce92d351fcf,619598b7b3822e39e9c37bff,HARD,"""","""","""","""",24981.69999999553,"""","{""Q0"":""Yes"",""Q1"":""Yes""}","""","[0,1]","""","""","""","""","""",2021-11-18 00:05:24,165.0.61.143,"Mozilla/5.0 (Windows NT 10.0; Win64; x64) AppleWebKit/537.36 (KHTML, like Gecko) Chrome/95.0.4638.69 Safari/537.36",WebKit,Chrome,95.0.4638.69,Windows,10.0,dea0c026f67335fbc761b19bc27fdecd
5,1,"""",image-keyboard-response,7,195748,0.0-4.0-0.1,6169a42a39d8414ac0f0df7c,61959741cbff6ce92d351fcf,619598b7b3822e39e9c37bff,6169a42a39d8414ac0f0df7c,61959741cbff6ce92d351fcf,619598b7b3822e39e9c37bff,HARD,"""","""","""","""",null,img/fixation.png,null,fixation,"""","""","""","""","""","""",2021-11-18 00:05:24,165.0.61.143,"Mozilla/5.0 (Windows NT 10.0; Win64; x64) AppleWebKit/537.36 (KHTML, like Gecko) Chrome/95.0.4638.69 Safari/537.36",WebKit,Chrome,95.0.4638.69,Windows,10.0,dea0c026f67335fbc761b19bc27fdecd
5,1,"""",image-keyboard-response,8,225757,0.0-4.0-1.1,6169a42a39d8414ac0f0df7c,61959741cbff6ce92d351fcf,619598b7b3822e39e9c37bff,6169a42a39d8414ac0f0df7c,61959741cbff6ce92d351fcf,619598b7b3822e39e9c37bff,HARD,"""","""","""","""",null,scarcity/easy/scenario3.png,null,"""","""","""","""","""","""","""",2021-11-18 00:05:24,165.0.61.143,"Mozilla/5.0 (Windows NT 10.0; Win64; x64) AppleWebKit/537.36 (KHTML, like Gecko) Chrome/95.0.4638.69 Safari/537.36",WebKit,Chrome,95.0.4638.69,Windows,10.0,dea0c026f67335fbc761b19bc27fdecd
5,1,"""",survey-multi-choice,9,245517,0.0-4.0-2.1,6169a42a39d8414ac0f0df7c,61959741cbff6ce92d351fcf,619598b7b3822e39e9c37bff,6169a42a39d8414ac0f0df7c,61959741cbff6ce92d351fcf,619598b7b3822e39e9c37bff,HARD,"""","""","""","""",19747.69999999553,"""","{""Q0"":""No"",""Q1"":""Yes""}","""","[0,1]","""","""","""","""","""",2021-11-18 00:05:24,165.0.61.143,"Mozilla/5.0 (Windows NT 10.0; Win64; x64) AppleWebKit/537.36 (KHTML, like Gecko) Chrome/95.0.4638.69 Safari/537.36",WebKit,Chrome,95.0.4638.69,Windows,10.0,dea0c026f67335fbc761b19bc27fdecd
5,1,"""",image-keyboard-response,10,247277,0.0-4.0-0.2,6169a42a39d8414ac0f0df7c,61959741cbff6ce92d351fcf,619598b7b3822e39e9c37bff,6169a42a39d8414ac0f0df7c,61959741cbff6ce92d351fcf,619598b7b3822e39e9c37bff,HARD,"""","""","""","""",null,img/fixation.png,null,fixation,"""","""","""","""","""","""",2021-11-18 00:05:24,165.0.61.143,"Mozilla/5.0 (Windows NT 10.0; Win64; x64) AppleWebKit/537.36 (KHTML, like Gecko) Chrome/95.0.4638.69 Safari/537.36",WebKit,Chrome,95.0.4638.69,Windows,10.0,dea0c026f67335fbc761b19bc27fdecd
5,1,"""",image-keyboard-response,11,277290,0.0-4.0-1.2,6169a42a39d8414ac0f0df7c,61959741cbff6ce92d351fcf,619598b7b3822e39e9c37bff,6169a42a39d8414ac0f0df7c,61959741cbff6ce92d351fcf,619598b7b3822e39e9c37bff,HARD,"""","""","""","""",null,scarcity/easy/scenario4.png,null,"""","""","""","""","""","""","""",2021-11-18 00:05:24,165.0.61.143,"Mozilla/5.0 (Windows NT 10.0; Win64; x64) AppleWebKit/537.36 (KHTML, like Gecko) Chrome/95.0.4638.69 Safari/537.36",WebKit,Chrome,95.0.4638.69,Windows,10.0,dea0c026f67335fbc761b19bc27fdecd
5,1,"""",survey-multi-choice,12,289381,0.0-4.0-2.2,6169a42a39d8414ac0f0df7c,61959741cbff6ce92d351fcf,619598b7b3822e39e9c37bff,6169a42a39d8414ac0f0df7c,61959741cbff6ce92d351fcf,619598b7b3822e39e9c37bff,HARD,"""","""","""","""",12060.89999999851,"""","{""Q0"":""Yes"",""Q1"":""Yes""}","""","[0,1]","""","""","""","""","""",2021-11-18 00:05:24,165.0.61.143,"Mozilla/5.0 (Windows NT 10.0; Win64; x64) AppleWebKit/537.36 (KHTML, like Gecko) Chrome/95.0.4638.69 Safari/537.36",WebKit,Chrome,95.0.4638.69,Windows,10.0,dea0c026f67335fbc761b19bc27fdecd
5,1,"""",image-keyboard-response,13,290141,0.0-4.0-0.3,6169a42a39d8414ac0f0df7c,61959741cbff6ce92d351fcf,619598b7b3822e39e9c37bff,6169a42a39d8414ac0f0df7c,61959741cbff6ce92d351fcf,619598b7b3822e39e9c37bff,HARD,"""","""","""","""",null,img/fixation.png,null,fixation,"""","""","""","""","""","""",2021-11-18 00:05:24,165.0.61.143,"Mozilla/5.0 (Windows NT 10.0; Win64; x64) AppleWebKit/537.36 (KHTML, like Gecko) Chrome/95.0.4638.69 Safari/537.36",WebKit,Chrome,95.0.4638.69,Windows,10.0,dea0c026f67335fbc761b19bc27fdecd
5,1,"""",image-keyboard-response,14,320150,0.0-4.0-1.3,6169a42a39d8414ac0f0df7c,61959741cbff6ce92d351fcf,619598b7b3822e39e9c37bff,6169a42a39d8414ac0f0df7c,61959741cbff6ce92d351fcf,619598b7b3822e39e9c37bff,HARD,"""","""","""","""",null,scarcity/easy/scenario1.png,null,"""","""","""","""","""","""","""",2021-11-18 00:05:24,165.0.61.143,"Mozilla/5.0 (Windows NT 10.0; Win64; x64) AppleWebKit/537.36 (KHTML, like Gecko) Chrome/95.0.4638.69 Safari/537.36",WebKit,Chrome,95.0.4638.69,Windows,10.0,dea0c026f67335fbc761b19bc27fdecd
5,1,"""",survey-multi-choice,15,333598,0.0-4.0-2.3,6169a42a39d8414ac0f0df7c,61959741cbff6ce92d351fcf,619598b7b3822e39e9c37bff,6169a42a39d8414ac0f0df7c,61959741cbff6ce92d351fcf,619598b7b3822e39e9c37bff,HARD,"""","""","""","""",13437.69999999553,"""","{""Q0"":""Yes"",""Q1"":""Yes""}","""","[0,1]","""","""","""","""","""",2021-11-18 00:05:24,165.0.61.143,"Mozilla/5.0 (Windows NT 10.0; Win64; x64) AppleWebKit/537.36 (KHTML, like Gecko) Chrome/95.0.4638.69 Safari/537.36",WebKit,Chrome,95.0.4638.69,Windows,10.0,dea0c026f67335fbc761b19bc27fdecd
5,1,"""",html-button-response,16,336927,0.0-5.0,6169a42a39d8414ac0f0df7c,61959741cbff6ce92d351fcf,619598b7b3822e39e9c37bff,6169a42a39d8414ac0f0df7c,61959741cbff6ce92d351fcf,619598b7b3822e39e9c37bff,HARD,"""","""","""","""",3323,"<p>You have finished reviewing each scenario!</p><p>We will now begin the cognitive experiment.<p><p>When you are ready to begin the cognitive game, please press START.</p>",0,"""","""","""","""","""","""","""",2021-11-18 00:05:24,165.0.61.143,"Mozilla/5.0 (Windows NT 10.0; Win64; x64) AppleWebKit/537.36 (KHTML, like Gecko) Chrome/95.0.4638.69 Safari/537.36",WebKit,Chrome,95.0.4638.69,Windows,10.0,dea0c026f67335fbc761b19bc27fdecd
5,1,"""",instructions,17,458996,0.0-6.0-0.0,6169a42a39d8414ac0f0df7c,61959741cbff6ce92d351fcf,619598b7b3822e39e9c37bff,6169a42a39d8414ac0f0df7c,61959741cbff6ce92d351fcf,619598b7b3822e39e9c37bff,HARD,"""","""","""","""",120307.70000000298,"""","""","""","""","[{""page_index"":0,""viewing_time"":59281.40000000596},{""page_index"":1,""viewing_time"":33592.89999999851},{""page_index"":2,""viewing_time"":5466},{""page_index"":3,""viewing_time"":1794.3999999985099},{""page_index"":4,""viewing_time"":4453.5},{""page_index"":5,""viewing_time"":9965.29999999702},{""page_index"":6,""viewing_time"":5750.80000000447}]","""","""","""","""",2021-11-18 00:05:24,165.0.61.143,"Mozilla/5.0 (Windows NT 10.0; Win64; x64) AppleWebKit/537.36 (KHTML, like Gecko) Chrome/95.0.4638.69 Safari/537.36",WebKit,Chrome,95.0.4638.69,Windows,10.0,dea0c026f67335fbc761b19bc27fdecd
5,1,"""",image-button-response,18,477024,0.0-6.0-1.0,6169a42a39d8414ac0f0df7c,61959741cbff6ce92d351fcf,619598b7b3822e39e9c37bff,6169a42a39d8414ac0f0df7c,61959741cbff6ce92d351fcf,619598b7b3822e39e9c37bff,HARD,"""","""","""","""",18019.79999999702,begin_practice.png,0,"""","""","""","""","""","""","""",2021-11-18 00:05:24,165.0.61.143,"Mozilla/5.0 (Windows NT 10.0; Win64; x64) AppleWebKit/537.36 (KHTML, like Gecko) Chrome/95.0.4638.69 Safari/537.36",WebKit,Chrome,95.0.4638.69,Windows,10.0,dea0c026f67335fbc761b19bc27fdecd
5,1,"""",image-keyboard-response,19,480785,0.0-6.0-2.0-0.0,6169a42a39d8414ac0f0df7c,61959741cbff6ce92d351fcf,619598b7b3822e39e9c37bff,6169a42a39d8414ac0f0df7c,61959741cbff6ce92d351fcf,619598b7b3822e39e9c37bff,HARD,"""","""","""","""",null,img/fixation.png,null,fixation,"""","""","""","""","""","""",2021-11-18 00:05:24,165.0.61.143,"Mozilla/5.0 (Windows NT 10.0; Win64; x64) AppleWebKit/537.36 (KHTML, like Gecko) Chrome/95.0.4638.69 Safari/537.36",WebKit,Chrome,95.0.4638.69,Windows,10.0,dea0c026f67335fbc761b19bc27fdecd
5,1,"""",image-keyboard-response,20,482583,0.0-6.0-2.0-1.0,6169a42a39d8414ac0f0df7c,61959741cbff6ce92d351fcf,619598b7b3822e39e9c37bff,6169a42a39d8414ac0f0df7c,61959741cbff6ce92d351fcf,619598b7b3822e39e9c37bff,HARD,"""","""","""","""",1789.7999999970198,img/heart_right.png,j,practice,"""","""",j,1,"""","""",2021-11-18 00:05:24,165.0.61.143,"Mozilla/5.0 (Windows NT 10.0; Win64; x64) AppleWebKit/537.36 (KHTML, like Gecko) Chrome/95.0.4638.69 Safari/537.36",WebKit,Chrome,95.0.4638.69,Windows,10.0,dea0c026f67335fbc761b19bc27fdecd
5,1,"""",html-keyboard-response,21,483590,0.0-6.0-2.0-2.0,6169a42a39d8414ac0f0df7c,61959741cbff6ce92d351fcf,619598b7b3822e39e9c37bff,6169a42a39d8414ac0f0df7c,61959741cbff6ce92d351fcf,619598b7b3822e39e9c37bff,HARD,"""","""","""","""",null,CORRECT!,null,"""","""","""","""","""",feedback,"""",2021-11-18 00:05:24,165.0.61.143,"Mozilla/5.0 (Windows NT 10.0; Win64; x64) AppleWebKit/537.36 (KHTML, like Gecko) Chrome/95.0.4638.69 Safari/537.36",WebKit,Chrome,95.0.4638.69,Windows,10.0,dea0c026f67335fbc761b19bc27fdecd
5,1,"""",image-keyboard-response,22,484853,0.0-6.0-2.0-0.1,6169a42a39d8414ac0f0df7c,61959741cbff6ce92d351fcf,619598b7b3822e39e9c37bff,6169a42a39d8414ac0f0df7c,61959741cbff6ce92d351fcf,619598b7b3822e39e9c37bff,HARD,"""","""","""","""",null,img/fixation.png,null,fixation,"""","""","""","""","""","""",2021-11-18 00:05:24,165.0.61.143,"Mozilla/5.0 (Windows NT 10.0; Win64; x64) AppleWebKit/537.36 (KHTML, like Gecko) Chrome/95.0.4638.69 Safari/537.36",WebKit,Chrome,95.0.4638.69,Windows,10.0,dea0c026f67335fbc761b19bc27fdecd
5,1,"""",image-keyboard-response,23,486307,0.0-6.0-2.0-1.1,6169a42a39d8414ac0f0df7c,61959741cbff6ce92d351fcf,619598b7b3822e39e9c37bff,6169a42a39d8414ac0f0df7c,61959741cbff6ce92d351fcf,619598b7b3822e39e9c37bff,HARD,"""","""","""","""",1448.0999999940395,img/heart_left.png,f,practice,"""","""",f,1,"""","""",2021-11-18 00:05:24,165.0.61.143,"Mozilla/5.0 (Windows NT 10.0; Win64; x64) AppleWebKit/537.36 (KHTML, like Gecko) Chrome/95.0.4638.69 Safari/537.36",WebKit,Chrome,95.0.4638.69,Windows,10.0,dea0c026f67335fbc761b19bc27fdecd
5,1,"""",html-keyboard-response,24,487311,0.0-6.0-2.0-2.1,6169a42a39d8414ac0f0df7c,61959741cbff6ce92d351fcf,619598b7b3822e39e9c37bff,6169a42a39d8414ac0f0df7c,61959741cbff6ce92d351fcf,619598b7b3822e39e9c37bff,HARD,"""","""","""","""",null,CORRECT!,null,"""","""","""","""","""",feedback,"""",2021-11-18 00:05:24,165.0.61.143,"Mozilla/5.0 (Windows NT 10.0; Win64; x64) AppleWebKit/537.36 (KHTML, like Gecko) Chrome/95.0.4638.69 Safari/537.36",WebKit,Chrome,95.0.4638.69,Windows,10.0,dea0c026f67335fbc761b19bc27fdecd
5,1,"""",image-keyboard-response,25,488340,0.0-6.0-2.0-0.2,6169a42a39d8414ac0f0df7c,61959741cbff6ce92d351fcf,619598b7b3822e39e9c37bff,6169a42a39d8414ac0f0df7c,61959741cbff6ce92d351fcf,619598b7b3822e39e9c37bff,HARD,"""","""","""","""",null,img/fixation.png,null,fixation,"""","""","""","""","""","""",2021-11-18 00:05:24,165.0.61.143,"Mozilla/5.0 (Windows NT 10.0; Win64; x64) AppleWebKit/537.36 (KHTML, like Gecko) Chrome/95.0.4638.69 Safari/537.36",WebKit,Chrome,95.0.4638.69,Windows,10.0,dea0c026f67335fbc761b19bc27fdecd
5,1,"""",image-keyboard-response,26,490114,0.0-6.0-2.0-1.2,6169a42a39d8414ac0f0df7c,61959741cbff6ce92d351fcf,619598b7b3822e39e9c37bff,6169a42a39d8414ac0f0df7c,61959741cbff6ce92d351fcf,619598b7b3822e39e9c37bff,HARD,"""","""","""","""",1768.1000000014901,img/heart_left.png,f,practice,"""","""",f,1,"""","""",2021-11-18 00:05:24,165.0.61.143,"Mozilla/5.0 (Windows NT 10.0; Win64; x64) AppleWebKit/537.36 (KHTML, like Gecko) Chrome/95.0.4638.69 Safari/537.36",WebKit,Chrome,95.0.4638.69,Windows,10.0,dea0c026f67335fbc761b19bc27fdecd
5,1,"""",html-keyboard-response,27,491118,0.0-6.0-2.0-2.2,6169a42a39d8414ac0f0df7c,61959741cbff6ce92d351fcf,619598b7b3822e39e9c37bff,6169a42a39d8414ac0f0df7c,61959741cbff6ce92d351fcf,619598b7b3822e39e9c37bff,HARD,"""","""","""","""",null,CORRECT!,null,"""","""","""","""","""",feedback,"""",2021-11-18 00:05:24,165.0.61.143,"Mozilla/5.0 (Windows NT 10.0; Win64; x64) AppleWebKit/537.36 (KHTML, like Gecko) Chrome/95.0.4638.69 Safari/537.36",WebKit,Chrome,95.0.4638.69,Windows,10.0,dea0c026f67335fbc761b19bc27fdecd
5,1,"""",image-keyboard-response,28,491373,0.0-6.0-2.0-0.3,6169a42a39d8414ac0f0df7c,61959741cbff6ce92d351fcf,619598b7b3822e39e9c37bff,6169a42a39d8414ac0f0df7c,61959741cbff6ce92d351fcf,619598b7b3822e39e9c37bff,HARD,"""","""","""","""",null,img/fixation.png,null,fixation,"""","""","""","""","""","""",2021-11-18 00:05:24,165.0.61.143,"Mozilla/5.0 (Windows NT 10.0; Win64; x64) AppleWebKit/537.36 (KHTML, like Gecko) Chrome/95.0.4638.69 Safari/537.36",WebKit,Chrome,95.0.4638.69,Windows,10.0,dea0c026f67335fbc761b19bc27fdecd
5,1,"""",image-keyboard-response,29,492689,0.0-6.0-2.0-1.3,6169a42a39d8414ac0f0df7c,61959741cbff6ce92d351fcf,619598b7b3822e39e9c37bff,6169a42a39d8414ac0f0df7c,61959741cbff6ce92d351fcf,619598b7b3822e39e9c37bff,HARD,"""","""","""","""",1309.7000000029802,img/heart_right.png,j,practice,"""","""",j,1,"""","""",2021-11-18 00:05:24,165.0.61.143,"Mozilla/5.0 (Windows NT 10.0; Win64; x64) AppleWebKit/537.36 (KHTML, like Gecko) Chrome/95.0.4638.69 Safari/537.36",WebKit,Chrome,95.0.4638.69,Windows,10.0,dea0c026f67335fbc761b19bc27fdecd
5,1,"""",html-keyboard-response,30,493701,0.0-6.0-2.0-2.3,6169a42a39d8414ac0f0df7c,61959741cbff6ce92d351fcf,619598b7b3822e39e9c37bff,6169a42a39d8414ac0f0df7c,61959741cbff6ce92d351fcf,619598b7b3822e39e9c37bff,HARD,"""","""","""","""",null,CORRECT!,null,"""","""","""","""","""",feedback,"""",2021-11-18 00:05:24,165.0.61.143,"Mozilla/5.0 (Windows NT 10.0; Win64; x64) AppleWebKit/537.36 (KHTML, like Gecko) Chrome/95.0.4638.69 Safari/537.36",WebKit,Chrome,95.0.4638.69,Windows,10.0,dea0c026f67335fbc761b19bc27fdecd
5,1,"""",image-keyboard-response,31,494959,0.0-6.0-2.0-0.4,6169a42a39d8414ac0f0df7c,61959741cbff6ce92d351fcf,619598b7b3822e39e9c37bff,6169a42a39d8414ac0f0df7c,61959741cbff6ce92d351fcf,619598b7b3822e39e9c37bff,HARD,"""","""","""","""",null,img/fixation.png,null,fixation,"""","""","""","""","""","""",2021-11-18 00:05:24,165.0.61.143,"Mozilla/5.0 (Windows NT 10.0; Win64; x64) AppleWebKit/537.36 (KHTML, like Gecko) Chrome/95.0.4638.69 Safari/537.36",WebKit,Chrome,95.0.4638.69,Windows,10.0,dea0c026f67335fbc761b19bc27fdecd
5,1,"""",image-keyboard-response,32,496860,0.0-6.0-2.0-1.4,6169a42a39d8414ac0f0df7c,61959741cbff6ce92d351fcf,619598b7b3822e39e9c37bff,6169a42a39d8414ac0f0df7c,61959741cbff6ce92d351fcf,619598b7b3822e39e9c37bff,HARD,"""","""","""","""",1895.8999999985099,img/flower_left.png,j,practice,"""","""",j,1,"""","""",2021-11-18 00:05:24,165.0.61.143,"Mozilla/5.0 (Windows NT 10.0; Win64; x64) AppleWebKit/537.36 (KHTML, like Gecko) Chrome/95.0.4638.69 Safari/537.36",WebKit,Chrome,95.0.4638.69,Windows,10.0,dea0c026f67335fbc761b19bc27fdecd
5,1,"""",html-keyboard-response,33,497863,0.0-6.0-2.0-2.4,6169a42a39d8414ac0f0df7c,61959741cbff6ce92d351fcf,619598b7b3822e39e9c37bff,6169a42a39d8414ac0f0df7c,61959741cbff6ce92d351fcf,619598b7b3822e39e9c37bff,HARD,"""","""","""","""",null,CORRECT!,null,"""","""","""","""","""",feedback,"""",2021-11-18 00:05:24,165.0.61.143,"Mozilla/5.0 (Windows NT 10.0; Win64; x64) AppleWebKit/537.36 (KHTML, like Gecko) Chrome/95.0.4638.69 Safari/537.36",WebKit,Chrome,95.0.4638.69,Windows,10.0,dea0c026f67335fbc761b19bc27fdecd
5,1,"""",image-keyboard-response,34,499617,0.0-6.0-2.0-0.5,6169a42a39d8414ac0f0df7c,61959741cbff6ce92d351fcf,619598b7b3822e39e9c37bff,6169a42a39d8414ac0f0df7c,61959741cbff6ce92d351fcf,619598b7b3822e39e9c37bff,HARD,"""","""","""","""",null,img/fixation.png,null,fixation,"""","""","""","""","""","""",2021-11-18 00:05:24,165.0.61.143,"Mozilla/5.0 (Windows NT 10.0; Win64; x64) AppleWebKit/537.36 (KHTML, like Gecko) Chrome/95.0.4638.69 Safari/537.36",WebKit,Chrome,95.0.4638.69,Windows,10.0,dea0c026f67335fbc761b19bc27fdecd
5,1,"""",image-keyboard-response,35,500966,0.0-6.0-2.0-1.5,6169a42a39d8414ac0f0df7c,61959741cbff6ce92d351fcf,619598b7b3822e39e9c37bff,6169a42a39d8414ac0f0df7c,61959741cbff6ce92d351fcf,619598b7b3822e39e9c37bff,HARD,"""","""","""","""",1341.5,img/flower_left.png,j,practice,"""","""",j,1,"""","""",2021-11-18 00:05:24,165.0.61.143,"Mozilla/5.0 (Windows NT 10.0; Win64; x64) AppleWebKit/537.36 (KHTML, like Gecko) Chrome/95.0.4638.69 Safari/537.36",WebKit,Chrome,95.0.4638.69,Windows,10.0,dea0c026f67335fbc761b19bc27fdecd
5,1,"""",html-keyboard-response,36,501979,0.0-6.0-2.0-2.5,6169a42a39d8414ac0f0df7c,61959741cbff6ce92d351fcf,619598b7b3822e39e9c37bff,6169a42a39d8414ac0f0df7c,61959741cbff6ce92d351fcf,619598b7b3822e39e9c37bff,HARD,"""","""","""","""",null,CORRECT!,null,"""","""","""","""","""",feedback,"""",2021-11-18 00:05:24,165.0.61.143,"Mozilla/5.0 (Windows NT 10.0; Win64; x64) AppleWebKit/537.36 (KHTML, like Gecko) Chrome/95.0.4638.69 Safari/537.36",WebKit,Chrome,95.0.4638.69,Windows,10.0,dea0c026f67335fbc761b19bc27fdecd
5,1,"""",image-keyboard-response,37,502763,0.0-6.0-2.0-0.6,6169a42a39d8414ac0f0df7c,61959741cbff6ce92d351fcf,619598b7b3822e39e9c37bff,6169a42a39d8414ac0f0df7c,61959741cbff6ce92d351fcf,619598b7b3822e39e9c37bff,HARD,"""","""","""","""",null,img/fixation.png,null,fixation,"""","""","""","""","""","""",2021-11-18 00:05:24,165.0.61.143,"Mozilla/5.0 (Windows NT 10.0; Win64; x64) AppleWebKit/537.36 (KHTML, like Gecko) Chrome/95.0.4638.69 Safari/537.36",WebKit,Chrome,95.0.4638.69,Windows,10.0,dea0c026f67335fbc761b19bc27fdecd
5,1,"""",image-keyboard-response,38,503561,0.0-6.0-2.0-1.6,6169a42a39d8414ac0f0df7c,61959741cbff6ce92d351fcf,619598b7b3822e39e9c37bff,6169a42a39d8414ac0f0df7c,61959741cbff6ce92d351fcf,619598b7b3822e39e9c37bff,HARD,"""","""","""","""",792.2999999970198,img/flower_left.png,j,practice,"""","""",j,1,"""","""",2021-11-18 00:05:24,165.0.61.143,"Mozilla/5.0 (Windows NT 10.0; Win64; x64) AppleWebKit/537.36 (KHTML, like Gecko) Chrome/95.0.4638.69 Safari/537.36",WebKit,Chrome,95.0.4638.69,Windows,10.0,dea0c026f67335fbc761b19bc27fdecd
5,1,"""",html-keyboard-response,39,504564,0.0-6.0-2.0-2.6,6169a42a39d8414ac0f0df7c,61959741cbff6ce92d351fcf,619598b7b3822e39e9c37bff,6169a42a39d8414ac0f0df7c,61959741cbff6ce92d351fcf,619598b7b3822e39e9c37bff,HARD,"""","""","""","""",null,CORRECT!,null,"""","""","""","""","""",feedback,"""",2021-11-18 00:05:24,165.0.61.143,"Mozilla/5.0 (Windows NT 10.0; Win64; x64) AppleWebKit/537.36 (KHTML, like Gecko) Chrome/95.0.4638.69 Safari/537.36",WebKit,Chrome,95.0.4638.69,Windows,10.0,dea0c026f67335fbc761b19bc27fdecd
5,1,"""",image-keyboard-response,40,504819,0.0-6.0-2.0-0.7,6169a42a39d8414ac0f0df7c,61959741cbff6ce92d351fcf,619598b7b3822e39e9c37bff,6169a42a39d8414ac0f0df7c,61959741cbff6ce92d351fcf,619598b7b3822e39e9c37bff,HARD,"""","""","""","""",null,img/fixation.png,null,fixation,"""","""","""","""","""","""",2021-11-18 00:05:24,165.0.61.143,"Mozilla/5.0 (Windows NT 10.0; Win64; x64) AppleWebKit/537.36 (KHTML, like Gecko) Chrome/95.0.4638.69 Safari/537.36",WebKit,Chrome,95.0.4638.69,Windows,10.0,dea0c026f67335fbc761b19bc27fdecd
