run_id,condition,success,trial_type,trial_index,time_elapsed,internal_node_id,subject_id,study_id,session_id,group,timeout,failed_images,failed_audio,failed_video,rt,stimulus,response,task,question_order,view_history,correct_response,accuracy,screen_id,block,recorded_at,ip,user_agent,device,browser,browser_version,platform,platform_version,source_code_version
28,1,true,fullscreen,0,5835,0.0-0.0,"""","""","""",EASY,"""","""","""","""","""","""","""","""","""","""","""","""","""","""","2021-11-15 03:34:31",24.4.120.49,"Mozilla/5.0 (Macintosh; Intel Mac OS X 10_15_7) AppleWebKit/537.36 (KHTML, like Gecko) Chrome/95.0.4638.69 Safari/537.36",Macintosh,Chrome,95.0.4638.69,"OS X",10_15_7,fc80173b241c556346404f5d33b3977b
28,1,true,preload,1,7390,0.0-1.0,"""","""","""",EASY,false,[],[],[],"""","""","""","""","""","""","""","""","""","""","2021-11-15 03:34:31",24.4.120.49,"Mozilla/5.0 (Macintosh; Intel Mac OS X 10_15_7) AppleWebKit/537.36 (KHTML, like Gecko) Chrome/95.0.4638.69 Safari/537.36",Macintosh,Chrome,95.0.4638.69,"OS X",10_15_7,fc80173b241c556346404f5d33b3977b
28,1,"""",html-button-response,2,9711,0.0-2.0,"""","""","""",EASY,"""","""","""","""",2319.8000000715256,"<p>Welcome! Thank you so much for participating in this study. Press START to begin.</p><br>",0,"""","""","""","""","""","""","""","2021-11-15 03:34:31",24.4.120.49,"Mozilla/5.0 (Macintosh; Intel Mac OS X 10_15_7) AppleWebKit/537.36 (KHTML, like Gecko) Chrome/95.0.4638.69 Safari/537.36",Macintosh,Chrome,95.0.4638.69,"OS X",10_15_7,fc80173b241c556346404f5d33b3977b
28,1,"""",html-button-response,3,21371,0.0-3.0,"""","""","""",EASY,"""","""","""","""",11658.800000071526,"<p>First, you will review a series of hypothetical scenarios each related to finances</p><br><p>Please think about each scenario carefully for approximately <strong>one minute</strong>.</p><br><p>Please reflect and process the scenario as if it were actually happening. Questions will be there to help guide your thinking.</p><p>When you are ready to begin, please press REVIEW to begin the study.",0,"""","""","""","""","""","""","""","2021-11-15 03:34:31",24.4.120.49,"Mozilla/5.0 (Macintosh; Intel Mac OS X 10_15_7) AppleWebKit/537.36 (KHTML, like Gecko) Chrome/95.0.4638.69 Safari/537.36",Macintosh,Chrome,95.0.4638.69,"OS X",10_15_7,fc80173b241c556346404f5d33b3977b
28,1,"""",image-keyboard-response,4,23641,0.0-4.0-0.0,"""","""","""",EASY,"""","""","""","""",null,img/fixation.png,null,fixation,"""","""","""","""","""","""","2021-11-15 03:34:31",24.4.120.49,"Mozilla/5.0 (Macintosh; Intel Mac OS X 10_15_7) AppleWebKit/537.36 (KHTML, like Gecko) Chrome/95.0.4638.69 Safari/537.36",Macintosh,Chrome,95.0.4638.69,"OS X",10_15_7,fc80173b241c556346404f5d33b3977b
28,1,"""",image-keyboard-response,5,53647,0.0-4.0-1.0,"""","""","""",EASY,"""","""","""","""",null,scarcity/easy/scenario3.png,null,"""","""","""","""","""","""","""","2021-11-15 03:34:31",24.4.120.49,"Mozilla/5.0 (Macintosh; Intel Mac OS X 10_15_7) AppleWebKit/537.36 (KHTML, like Gecko) Chrome/95.0.4638.69 Safari/537.36",Macintosh,Chrome,95.0.4638.69,"OS X",10_15_7,fc80173b241c556346404f5d33b3977b
28,1,"""",survey-multi-choice,6,58905,0.0-4.0-2.0,"""","""","""",EASY,"""","""","""","""",5254,"""","{""Q0"":""Yes"",""Q1"":""Yes""}","""","[0,1]","""","""","""","""","""","2021-11-15 03:34:31",24.4.120.49,"Mozilla/5.0 (Macintosh; Intel Mac OS X 10_15_7) AppleWebKit/537.36 (KHTML, like Gecko) Chrome/95.0.4638.69 Safari/537.36",Macintosh,Chrome,95.0.4638.69,"OS X",10_15_7,fc80173b241c556346404f5d33b3977b
28,1,"""",image-keyboard-response,7,60909,0.0-4.0-0.1,"""","""","""",EASY,"""","""","""","""",null,img/fixation.png,null,fixation,"""","""","""","""","""","""","2021-11-15 03:34:31",24.4.120.49,"Mozilla/5.0 (Macintosh; Intel Mac OS X 10_15_7) AppleWebKit/537.36 (KHTML, like Gecko) Chrome/95.0.4638.69 Safari/537.36",Macintosh,Chrome,95.0.4638.69,"OS X",10_15_7,fc80173b241c556346404f5d33b3977b
28,1,"""",image-keyboard-response,8,90915,0.0-4.0-1.1,"""","""","""",EASY,"""","""","""","""",null,scarcity/easy/scenario1.png,null,"""","""","""","""","""","""","""","2021-11-15 03:34:31",24.4.120.49,"Mozilla/5.0 (Macintosh; Intel Mac OS X 10_15_7) AppleWebKit/537.36 (KHTML, like Gecko) Chrome/95.0.4638.69 Safari/537.36",Macintosh,Chrome,95.0.4638.69,"OS X",10_15_7,fc80173b241c556346404f5d33b3977b
28,1,"""",survey-multi-choice,9,96686,0.0-4.0-2.1,"""","""","""",EASY,"""","""","""","""",5769.600000023842,"""","{""Q0"":""Yes"",""Q1"":""Yes""}","""","[0,1]","""","""","""","""","""","2021-11-15 03:34:31",24.4.120.49,"Mozilla/5.0 (Macintosh; Intel Mac OS X 10_15_7) AppleWebKit/537.36 (KHTML, like Gecko) Chrome/95.0.4638.69 Safari/537.36",Macintosh,Chrome,95.0.4638.69,"OS X",10_15_7,fc80173b241c556346404f5d33b3977b
28,1,"""",image-keyboard-response,10,97690,0.0-4.0-0.2,"""","""","""",EASY,"""","""","""","""",null,img/fixation.png,null,fixation,"""","""","""","""","""","""","2021-11-15 03:34:31",24.4.120.49,"Mozilla/5.0 (Macintosh; Intel Mac OS X 10_15_7) AppleWebKit/537.36 (KHTML, like Gecko) Chrome/95.0.4638.69 Safari/537.36",Macintosh,Chrome,95.0.4638.69,"OS X",10_15_7,fc80173b241c556346404f5d33b3977b
28,1,"""",image-keyboard-response,11,127695,0.0-4.0-1.2,"""","""","""",EASY,"""","""","""","""",null,scarcity/easy/scenario4.png,null,"""","""","""","""","""","""","""","2021-11-15 03:34:31",24.4.120.49,"Mozilla/5.0 (Macintosh; Intel Mac OS X 10_15_7) AppleWebKit/537.36 (KHTML, like Gecko) Chrome/95.0.4638.69 Safari/537.36",Macintosh,Chrome,95.0.4638.69,"OS X",10_15_7,fc80173b241c556346404f5d33b3977b
28,1,"""",survey-multi-choice,12,133246,0.0-4.0-2.2,"""","""","""",EASY,"""","""","""","""",5548.299999952316,"""","{""Q0"":""Yes"",""Q1"":""Yes""}","""","[0,1]","""","""","""","""","""","2021-11-15 03:34:31",24.4.120.49,"Mozilla/5.0 (Macintosh; Intel Mac OS X 10_15_7) AppleWebKit/537.36 (KHTML, like Gecko) Chrome/95.0.4638.69 Safari/537.36",Macintosh,Chrome,95.0.4638.69,"OS X",10_15_7,fc80173b241c556346404f5d33b3977b
28,1,"""",image-keyboard-response,13,133748,0.0-4.0-0.3,"""","""","""",EASY,"""","""","""","""",null,img/fixation.png,null,fixation,"""","""","""","""","""","""","2021-11-15 03:34:31",24.4.120.49,"Mozilla/5.0 (Macintosh; Intel Mac OS X 10_15_7) AppleWebKit/537.36 (KHTML, like Gecko) Chrome/95.0.4638.69 Safari/537.36",Macintosh,Chrome,95.0.4638.69,"OS X",10_15_7,fc80173b241c556346404f5d33b3977b
28,1,"""",image-keyboard-response,14,163755,0.0-4.0-1.3,"""","""","""",EASY,"""","""","""","""",null,scarcity/easy/scenario2.png,null,"""","""","""","""","""","""","""","2021-11-15 03:34:31",24.4.120.49,"Mozilla/5.0 (Macintosh; Intel Mac OS X 10_15_7) AppleWebKit/537.36 (KHTML, like Gecko) Chrome/95.0.4638.69 Safari/537.36",Macintosh,Chrome,95.0.4638.69,"OS X",10_15_7,fc80173b241c556346404f5d33b3977b
28,1,"""",survey-multi-choice,15,168764,0.0-4.0-2.3,"""","""","""",EASY,"""","""","""","""",5007.899999976158,"""","{""Q0"":""Yes"",""Q1"":""Yes""}","""","[0,1]","""","""","""","""","""","2021-11-15 03:34:31",24.4.120.49,"Mozilla/5.0 (Macintosh; Intel Mac OS X 10_15_7) AppleWebKit/537.36 (KHTML, like Gecko) Chrome/95.0.4638.69 Safari/537.36",Macintosh,Chrome,95.0.4638.69,"OS X",10_15_7,fc80173b241c556346404f5d33b3977b
28,1,"""",html-button-response,16,172232,0.0-5.0,"""","""","""",EASY,"""","""","""","""",3463.7000000476837,"<p>You have finished reviewing each scenario!</p><p>We will now begin the cognitive experiment.<p><p>When you are ready to begin the cognitive game, please press START.</p>",0,"""","""","""","""","""","""","""","2021-11-15 03:34:31",24.4.120.49,"Mozilla/5.0 (Macintosh; Intel Mac OS X 10_15_7) AppleWebKit/537.36 (KHTML, like Gecko) Chrome/95.0.4638.69 Safari/537.36",Macintosh,Chrome,95.0.4638.69,"OS X",10_15_7,fc80173b241c556346404f5d33b3977b
28,1,"""",instructions,17,206390,0.0-6.0-0.0,"""","""","""",EASY,"""","""","""","""",32406.100000023842,"""","""","""","""","[{""page_index"":0,""viewing_time"":8596.399999976158},{""page_index"":1,""viewing_time"":5138.700000047684},{""page_index"":2,""viewing_time"":3214.399999976158},{""page_index"":3,""viewing_time"":2404.399999976158},{""page_index"":4,""viewing_time"":3889.399999976158},{""page_index"":5,""viewing_time"":6837.5},{""page_index"":6,""viewing_time"":2324.5}]","""","""","""","""","2021-11-15 03:34:31",24.4.120.49,"Mozilla/5.0 (Macintosh; Intel Mac OS X 10_15_7) AppleWebKit/537.36 (KHTML, like Gecko) Chrome/95.0.4638.69 Safari/537.36",Macintosh,Chrome,95.0.4638.69,"OS X",10_15_7,fc80173b241c556346404f5d33b3977b
28,1,"""",image-button-response,18,213085,0.0-6.0-1.0,"""","""","""",EASY,"""","""","""","""",6692.299999952316,begin_practice.png,0,"""","""","""","""","""","""","""","2021-11-15 03:34:31",24.4.120.49,"Mozilla/5.0 (Macintosh; Intel Mac OS X 10_15_7) AppleWebKit/537.36 (KHTML, like Gecko) Chrome/95.0.4638.69 Safari/537.36",Macintosh,Chrome,95.0.4638.69,"OS X",10_15_7,fc80173b241c556346404f5d33b3977b
28,1,"""",image-keyboard-response,19,216841,0.0-6.0-2.0-0.0,"""","""","""",EASY,"""","""","""","""",null,img/fixation.png,null,fixation,"""","""","""","""","""","""","2021-11-15 03:34:31",24.4.120.49,"Mozilla/5.0 (Macintosh; Intel Mac OS X 10_15_7) AppleWebKit/537.36 (KHTML, like Gecko) Chrome/95.0.4638.69 Safari/537.36",Macintosh,Chrome,95.0.4638.69,"OS X",10_15_7,fc80173b241c556346404f5d33b3977b
28,1,"""",image-keyboard-response,20,217688,0.0-6.0-2.0-1.0,"""","""","""",EASY,"""","""","""","""",844.1000000238419,img/heart_right.png,j,practice,"""","""",j,1,"""","""","2021-11-15 03:34:31",24.4.120.49,"Mozilla/5.0 (Macintosh; Intel Mac OS X 10_15_7) AppleWebKit/537.36 (KHTML, like Gecko) Chrome/95.0.4638.69 Safari/537.36",Macintosh,Chrome,95.0.4638.69,"OS X",10_15_7,fc80173b241c556346404f5d33b3977b
28,1,"""",html-keyboard-response,21,218693,0.0-6.0-2.0-2.0,"""","""","""",EASY,"""","""","""","""",null,CORRECT!,null,"""","""","""","""","""",feedback,"""","2021-11-15 03:34:31",24.4.120.49,"Mozilla/5.0 (Macintosh; Intel Mac OS X 10_15_7) AppleWebKit/537.36 (KHTML, like Gecko) Chrome/95.0.4638.69 Safari/537.36",Macintosh,Chrome,95.0.4638.69,"OS X",10_15_7,fc80173b241c556346404f5d33b3977b
28,1,"""",image-keyboard-response,22,220446,0.0-6.0-2.0-0.1,"""","""","""",EASY,"""","""","""","""",null,img/fixation.png,null,fixation,"""","""","""","""","""","""","2021-11-15 03:34:31",24.4.120.49,"Mozilla/5.0 (Macintosh; Intel Mac OS X 10_15_7) AppleWebKit/537.36 (KHTML, like Gecko) Chrome/95.0.4638.69 Safari/537.36",Macintosh,Chrome,95.0.4638.69,"OS X",10_15_7,fc80173b241c556346404f5d33b3977b
28,1,"""",image-keyboard-response,23,221222,0.0-6.0-2.0-1.1,"""","""","""",EASY,"""","""","""","""",774.2000000476837,img/flower_left.png,j,practice,"""","""",j,1,"""","""","2021-11-15 03:34:31",24.4.120.49,"Mozilla/5.0 (Macintosh; Intel Mac OS X 10_15_7) AppleWebKit/537.36 (KHTML, like Gecko) Chrome/95.0.4638.69 Safari/537.36",Macintosh,Chrome,95.0.4638.69,"OS X",10_15_7,fc80173b241c556346404f5d33b3977b
28,1,"""",html-keyboard-response,24,222223,0.0-6.0-2.0-2.1,"""","""","""",EASY,"""","""","""","""",null,CORRECT!,null,"""","""","""","""","""",feedback,"""","2021-11-15 03:34:31",24.4.120.49,"Mozilla/5.0 (Macintosh; Intel Mac OS X 10_15_7) AppleWebKit/537.36 (KHTML, like Gecko) Chrome/95.0.4638.69 Safari/537.36",Macintosh,Chrome,95.0.4638.69,"OS X",10_15_7,fc80173b241c556346404f5d33b3977b
28,1,"""",image-keyboard-response,25,222977,0.0-6.0-2.0-0.2,"""","""","""",EASY,"""","""","""","""",null,img/fixation.png,null,fixation,"""","""","""","""","""","""","2021-11-15 03:34:31",24.4.120.49,"Mozilla/5.0 (Macintosh; Intel Mac OS X 10_15_7) AppleWebKit/537.36 (KHTML, like Gecko) Chrome/95.0.4638.69 Safari/537.36",Macintosh,Chrome,95.0.4638.69,"OS X",10_15_7,fc80173b241c556346404f5d33b3977b
28,1,"""",image-keyboard-response,26,223782,0.0-6.0-2.0-1.2,"""","""","""",EASY,"""","""","""","""",803,img/flower_right.png,f,practice,"""","""",f,1,"""","""","2021-11-15 03:34:31",24.4.120.49,"Mozilla/5.0 (Macintosh; Intel Mac OS X 10_15_7) AppleWebKit/537.36 (KHTML, like Gecko) Chrome/95.0.4638.69 Safari/537.36",Macintosh,Chrome,95.0.4638.69,"OS X",10_15_7,fc80173b241c556346404f5d33b3977b
28,1,"""",html-keyboard-response,27,224782,0.0-6.0-2.0-2.2,"""","""","""",EASY,"""","""","""","""",null,CORRECT!,null,"""","""","""","""","""",feedback,"""","2021-11-15 03:34:31",24.4.120.49,"Mozilla/5.0 (Macintosh; Intel Mac OS X 10_15_7) AppleWebKit/537.36 (KHTML, like Gecko) Chrome/95.0.4638.69 Safari/537.36",Macintosh,Chrome,95.0.4638.69,"OS X",10_15_7,fc80173b241c556346404f5d33b3977b
28,1,"""",image-keyboard-response,28,225787,0.0-6.0-2.0-0.3,"""","""","""",EASY,"""","""","""","""",null,img/fixation.png,null,fixation,"""","""","""","""","""","""","2021-11-15 03:34:31",24.4.120.49,"Mozilla/5.0 (Macintosh; Intel Mac OS X 10_15_7) AppleWebKit/537.36 (KHTML, like Gecko) Chrome/95.0.4638.69 Safari/537.36",Macintosh,Chrome,95.0.4638.69,"OS X",10_15_7,fc80173b241c556346404f5d33b3977b
28,1,"""",image-keyboard-response,29,226438,0.0-6.0-2.0-1.3,"""","""","""",EASY,"""","""","""","""",650,img/heart_right.png,j,practice,"""","""",j,1,"""","""","2021-11-15 03:34:31",24.4.120.49,"Mozilla/5.0 (Macintosh; Intel Mac OS X 10_15_7) AppleWebKit/537.36 (KHTML, like Gecko) Chrome/95.0.4638.69 Safari/537.36",Macintosh,Chrome,95.0.4638.69,"OS X",10_15_7,fc80173b241c556346404f5d33b3977b
28,1,"""",html-keyboard-response,30,227441,0.0-6.0-2.0-2.3,"""","""","""",EASY,"""","""","""","""",null,CORRECT!,null,"""","""","""","""","""",feedback,"""","2021-11-15 03:34:31",24.4.120.49,"Mozilla/5.0 (Macintosh; Intel Mac OS X 10_15_7) AppleWebKit/537.36 (KHTML, like Gecko) Chrome/95.0.4638.69 Safari/537.36",Macintosh,Chrome,95.0.4638.69,"OS X",10_15_7,fc80173b241c556346404f5d33b3977b
28,1,"""",image-keyboard-response,31,228445,0.0-6.0-2.0-0.4,"""","""","""",EASY,"""","""","""","""",null,img/fixation.png,null,fixation,"""","""","""","""","""","""","2021-11-15 03:34:31",24.4.120.49,"Mozilla/5.0 (Macintosh; Intel Mac OS X 10_15_7) AppleWebKit/537.36 (KHTML, like Gecko) Chrome/95.0.4638.69 Safari/537.36",Macintosh,Chrome,95.0.4638.69,"OS X",10_15_7,fc80173b241c556346404f5d33b3977b
28,1,"""",image-keyboard-response,32,229030,0.0-6.0-2.0-1.4,"""","""","""",EASY,"""","""","""","""",581.3000000715256,img/flower_right.png,f,practice,"""","""",f,1,"""","""","2021-11-15 03:34:31",24.4.120.49,"Mozilla/5.0 (Macintosh; Intel Mac OS X 10_15_7) AppleWebKit/537.36 (KHTML, like Gecko) Chrome/95.0.4638.69 Safari/537.36",Macintosh,Chrome,95.0.4638.69,"OS X",10_15_7,fc80173b241c556346404f5d33b3977b
28,1,"""",html-keyboard-response,33,230035,0.0-6.0-2.0-2.4,"""","""","""",EASY,"""","""","""","""",null,CORRECT!,null,"""","""","""","""","""",feedback,"""","2021-11-15 03:34:31",24.4.120.49,"Mozilla/5.0 (Macintosh; Intel Mac OS X 10_15_7) AppleWebKit/537.36 (KHTML, like Gecko) Chrome/95.0.4638.69 Safari/537.36",Macintosh,Chrome,95.0.4638.69,"OS X",10_15_7,fc80173b241c556346404f5d33b3977b
28,1,"""",image-keyboard-response,34,230791,0.0-6.0-2.0-0.5,"""","""","""",EASY,"""","""","""","""",null,img/fixation.png,null,fixation,"""","""","""","""","""","""","2021-11-15 03:34:31",24.4.120.49,"Mozilla/5.0 (Macintosh; Intel Mac OS X 10_15_7) AppleWebKit/537.36 (KHTML, like Gecko) Chrome/95.0.4638.69 Safari/537.36",Macintosh,Chrome,95.0.4638.69,"OS X",10_15_7,fc80173b241c556346404f5d33b3977b
28,1,"""",image-keyboard-response,35,231519,0.0-6.0-2.0-1.5,"""","""","""",EASY,"""","""","""","""",727.4000000953674,img/flower_left.png,j,practice,"""","""",j,1,"""","""","2021-11-15 03:34:31",24.4.120.49,"Mozilla/5.0 (Macintosh; Intel Mac OS X 10_15_7) AppleWebKit/537.36 (KHTML, like Gecko) Chrome/95.0.4638.69 Safari/537.36",Macintosh,Chrome,95.0.4638.69,"OS X",10_15_7,fc80173b241c556346404f5d33b3977b
28,1,"""",html-keyboard-response,36,232520,0.0-6.0-2.0-2.5,"""","""","""",EASY,"""","""","""","""",null,CORRECT!,null,"""","""","""","""","""",feedback,"""","2021-11-15 03:34:31",24.4.120.49,"Mozilla/5.0 (Macintosh; Intel Mac OS X 10_15_7) AppleWebKit/537.36 (KHTML, like Gecko) Chrome/95.0.4638.69 Safari/537.36",Macintosh,Chrome,95.0.4638.69,"OS X",10_15_7,fc80173b241c556346404f5d33b3977b
28,1,"""",image-keyboard-response,37,233774,0.0-6.0-2.0-0.6,"""","""","""",EASY,"""","""","""","""",null,img/fixation.png,null,fixation,"""","""","""","""","""","""","2021-11-15 03:34:31",24.4.120.49,"Mozilla/5.0 (Macintosh; Intel Mac OS X 10_15_7) AppleWebKit/537.36 (KHTML, like Gecko) Chrome/95.0.4638.69 Safari/537.36",Macintosh,Chrome,95.0.4638.69,"OS X",10_15_7,fc80173b241c556346404f5d33b3977b
28,1,"""",image-keyboard-response,38,234595,0.0-6.0-2.0-1.6,"""","""","""",EASY,"""","""","""","""",820.5,img/flower_left.png,j,practice,"""","""",j,1,"""","""","2021-11-15 03:34:31",24.4.120.49,"Mozilla/5.0 (Macintosh; Intel Mac OS X 10_15_7) AppleWebKit/537.36 (KHTML, like Gecko) Chrome/95.0.4638.69 Safari/537.36",Macintosh,Chrome,95.0.4638.69,"OS X",10_15_7,fc80173b241c556346404f5d33b3977b
28,1,"""",html-keyboard-response,39,235600,0.0-6.0-2.0-2.6,"""","""","""",EASY,"""","""","""","""",null,CORRECT!,null,"""","""","""","""","""",feedback,"""","2021-11-15 03:34:31",24.4.120.49,"Mozilla/5.0 (Macintosh; Intel Mac OS X 10_15_7) AppleWebKit/537.36 (KHTML, like Gecko) Chrome/95.0.4638.69 Safari/537.36",Macintosh,Chrome,95.0.4638.69,"OS X",10_15_7,fc80173b241c556346404f5d33b3977b
28,1,"""",image-keyboard-response,40,236605,0.0-6.0-2.0-0.7,"""","""","""",EASY,"""","""","""","""",null,img/fixation.png,null,fixation,"""","""","""","""","""","""","2021-11-15 03:34:31",24.4.120.49,"Mozilla/5.0 (Macintosh; Intel Mac OS X 10_15_7) AppleWebKit/537.36 (KHTML, like Gecko) Chrome/95.0.4638.69 Safari/537.36",Macintosh,Chrome,95.0.4638.69,"OS X",10_15_7,fc80173b241c556346404f5d33b3977b
28,1,"""",image-keyboard-response,41,237194,0.0-6.0-2.0-1.7,"""","""","""",EASY,"""","""","""","""",586.6999999284744,img/flower_left.png,j,practice,"""","""",j,1,"""","""","2021-11-15 03:34:31",24.4.120.49,"Mozilla/5.0 (Macintosh; Intel Mac OS X 10_15_7) AppleWebKit/537.36 (KHTML, like Gecko) Chrome/95.0.4638.69 Safari/537.36",Macintosh,Chrome,95.0.4638.69,"OS X",10_15_7,fc80173b241c556346404f5d33b3977b
28,1,"""",html-keyboard-response,42,238197,0.0-6.0-2.0-2.7,"""","""","""",EASY,"""","""","""","""",null,CORRECT!,null,"""","""","""","""","""",feedback,"""","2021-11-15 03:34:31",24.4.120.49,"Mozilla/5.0 (Macintosh; Intel Mac OS X 10_15_7) AppleWebKit/537.36 (KHTML, like Gecko) Chrome/95.0.4638.69 Safari/537.36",Macintosh,Chrome,95.0.4638.69,"OS X",10_15_7,fc80173b241c556346404f5d33b3977b
28,1,"""",image-keyboard-response,43,238702,0.0-6.0-2.0-0.8,"""","""","""",EASY,"""","""","""","""",null,img/fixation.png,null,fixation,"""","""","""","""","""","""","2021-11-15 03:34:31",24.4.120.49,"Mozilla/5.0 (Macintosh; Intel Mac OS X 10_15_7) AppleWebKit/537.36 (KHTML, like Gecko) Chrome/95.0.4638.69 Safari/537.36",Macintosh,Chrome,95.0.4638.69,"OS X",10_15_7,fc80173b241c556346404f5d33b3977b
28,1,"""",image-keyboard-response,44,239501,0.0-6.0-2.0-1.8,"""","""","""",EASY,"""","""","""","""",796.6000000238419,img/heart_left.png,f,practice,"""","""",f,1,"""","""","2021-11-15 03:34:31",24.4.120.49,"Mozilla/5.0 (Macintosh; Intel Mac OS X 10_15_7) AppleWebKit/537.36 (KHTML, like Gecko) Chrome/95.0.4638.69 Safari/537.36",Macintosh,Chrome,95.0.4638.69,"OS X",10_15_7,fc80173b241c556346404f5d33b3977b
28,1,"""",html-keyboard-response,45,240502,0.0-6.0-2.0-2.8,"""","""","""",EASY,"""","""","""","""",null,CORRECT!,null,"""","""","""","""","""",feedback,"""","2021-11-15 03:34:31",24.4.120.49,"Mozilla/5.0 (Macintosh; Intel Mac OS X 10_15_7) AppleWebKit/537.36 (KHTML, like Gecko) Chrome/95.0.4638.69 Safari/537.36",Macintosh,Chrome,95.0.4638.69,"OS X",10_15_7,fc80173b241c556346404f5d33b3977b
28,1,"""",image-keyboard-response,46,242259,0.0-6.0-2.0-0.9,"""","""","""",EASY,"""","""","""","""",null,img/fixation.png,null,fixation,"""","""","""","""","""","""","2021-11-15 03:34:31",24.4.120.49,"Mozilla/5.0 (Macintosh; Intel Mac OS X 10_15_7) AppleWebKit/537.36 (KHTML, like Gecko) Chrome/95.0.4638.69 Safari/537.36",Macintosh,Chrome,95.0.4638.69,"OS X",10_15_7,fc80173b241c556346404f5d33b3977b
28,1,"""",image-keyboard-response,47,242907,0.0-6.0-2.0-1.9,"""","""","""",EASY,"""","""","""","""",646.2999999523163,img/flower_left.png,j,practice,"""","""",j,1,"""","""","2021-11-15 03:34:31",24.4.120.49,"Mozilla/5.0 (Macintosh; Intel Mac OS X 10_15_7) AppleWebKit/537.36 (KHTML, like Gecko) Chrome/95.0.4638.69 Safari/537.36",Macintosh,Chrome,95.0.4638.69,"OS X",10_15_7,fc80173b241c556346404f5d33b3977b
28,1,"""",html-keyboard-response,48,243910,0.0-6.0-2.0-2.9,"""","""","""",EASY,"""","""","""","""",null,CORRECT!,null,"""","""","""","""","""",feedback,"""","2021-11-15 03:34:31",24.4.120.49,"Mozilla/5.0 (Macintosh; Intel Mac OS X 10_15_7) AppleWebKit/537.36 (KHTML, like Gecko) Chrome/95.0.4638.69 Safari/537.36",Macintosh,Chrome,95.0.4638.69,"OS X",10_15_7,fc80173b241c556346404f5d33b3977b
28,1,"""",image-button-response,49,246134,0.0-7.0,"""","""","""",EASY,"""","""","""","""",2222.5,img/begin_experiment.png,0,"""","""","""","""","""","""","""","2021-11-15 03:34:31",24.4.120.49,"Mozilla/5.0 (Macintosh; Intel Mac OS X 10_15_7) AppleWebKit/537.36 (KHTML, like Gecko) Chrome/95.0.4638.69 Safari/537.36",Macintosh,Chrome,95.0.4638.69,"OS X",10_15_7,fc80173b241c556346404f5d33b3977b
28,1,"""",html-button-response,50,250348,0.0-8.0,"""","""","""",EASY,"""","""","""","""",2205.399999976158,"Block 1",0,"""","""","""","""","""","""","""","2021-11-15 03:34:31",24.4.120.49,"Mozilla/5.0 (Macintosh; Intel Mac OS X 10_15_7) AppleWebKit/537.36 (KHTML, like Gecko) Chrome/95.0.4638.69 Safari/537.36",Macintosh,Chrome,95.0.4638.69,"OS X",10_15_7,fc80173b241c556346404f5d33b3977b
28,1,"""",image-keyboard-response,51,253354,0.0-9.0-0.0,"""","""","""",EASY,"""","""","""","""",null,img/fixation.png,null,fixation,"""","""","""","""","""",1,"2021-11-15 03:34:31",24.4.120.49,"Mozilla/5.0 (Macintosh; Intel Mac OS X 10_15_7) AppleWebKit/537.36 (KHTML, like Gecko) Chrome/95.0.4638.69 Safari/537.36",Macintosh,Chrome,95.0.4638.69,"OS X",10_15_7,fc80173b241c556346404f5d33b3977b
28,1,"""",image-keyboard-response,52,253976,0.0-9.0-1.0,"""","""","""",EASY,"""","""","""","""",618.0999999046326,img/heart_left.png,f,response,"""","""",f,1,"""",1,"2021-11-15 03:34:31",24.4.120.49,"Mozilla/5.0 (Macintosh; Intel Mac OS X 10_15_7) AppleWebKit/537.36 (KHTML, like Gecko) Chrome/95.0.4638.69 Safari/537.36",Macintosh,Chrome,95.0.4638.69,"OS X",10_15_7,fc80173b241c556346404f5d33b3977b
28,1,"""",image-keyboard-response,53,254480,0.0-9.0-0.1,"""","""","""",EASY,"""","""","""","""",null,img/fixation.png,null,fixation,"""","""","""","""","""",1,"2021-11-15 03:34:31",24.4.120.49,"Mozilla/5.0 (Macintosh; Intel Mac OS X 10_15_7) AppleWebKit/537.36 (KHTML, like Gecko) Chrome/95.0.4638.69 Safari/537.36",Macintosh,Chrome,95.0.4638.69,"OS X",10_15_7,fc80173b241c556346404f5d33b3977b
28,1,"""",image-keyboard-response,54,255141,0.0-9.0-1.1,"""","""","""",EASY,"""","""","""","""",659.8999999761581,img/flower_left.png,j,response,"""","""",j,1,"""",1,"2021-11-15 03:34:31",24.4.120.49,"Mozilla/5.0 (Macintosh; Intel Mac OS X 10_15_7) AppleWebKit/537.36 (KHTML, like Gecko) Chrome/95.0.4638.69 Safari/537.36",Macintosh,Chrome,95.0.4638.69,"OS X",10_15_7,fc80173b241c556346404f5d33b3977b
28,1,"""",image-keyboard-response,55,255409,0.0-9.0-0.2,"""","""","""",EASY,"""","""","""","""",null,img/fixation.png,null,fixation,"""","""","""","""","""",1,"2021-11-15 03:34:31",24.4.120.49,"Mozilla/5.0 (Macintosh; Intel Mac OS X 10_15_7) AppleWebKit/537.36 (KHTML, like Gecko) Chrome/95.0.4638.69 Safari/537.36",Macintosh,Chrome,95.0.4638.69,"OS X",10_15_7,fc80173b241c556346404f5d33b3977b
28,1,"""",image-keyboard-response,56,256308,0.0-9.0-1.2,"""","""","""",EASY,"""","""","""","""",898,img/heart_right.png,j,response,"""","""",j,1,"""",1,"2021-11-15 03:34:31",24.4.120.49,"Mozilla/5.0 (Macintosh; Intel Mac OS X 10_15_7) AppleWebKit/537.36 (KHTML, like Gecko) Chrome/95.0.4638.69 Safari/537.36",Macintosh,Chrome,95.0.4638.69,"OS X",10_15_7,fc80173b241c556346404f5d33b3977b
28,1,"""",image-keyboard-response,57,258312,0.0-9.0-0.3,"""","""","""",EASY,"""","""","""","""",null,img/fixation.png,null,fixation,"""","""","""","""","""",1,"2021-11-15 03:34:31",24.4.120.49,"Mozilla/5.0 (Macintosh; Intel Mac OS X 10_15_7) AppleWebKit/537.36 (KHTML, like Gecko) Chrome/95.0.4638.69 Safari/537.36",Macintosh,Chrome,95.0.4638.69,"OS X",10_15_7,fc80173b241c556346404f5d33b3977b
28,1,"""",image-keyboard-response,58,258928,0.0-9.0-1.3,"""","""","""",EASY,"""","""","""","""",615.1000000238419,img/heart_left.png,f,response,"""","""",f,1,"""",1,"2021-11-15 03:34:31",24.4.120.49,"Mozilla/5.0 (Macintosh; Intel Mac OS X 10_15_7) AppleWebKit/537.36 (KHTML, like Gecko) Chrome/95.0.4638.69 Safari/537.36",Macintosh,Chrome,95.0.4638.69,"OS X",10_15_7,fc80173b241c556346404f5d33b3977b
28,1,"""",image-keyboard-response,59,260181,0.0-9.0-0.4,"""","""","""",EASY,"""","""","""","""",null,img/fixation.png,null,fixation,"""","""","""","""","""",1,"2021-11-15 03:34:31",24.4.120.49,"Mozilla/5.0 (Macintosh; Intel Mac OS X 10_15_7) AppleWebKit/537.36 (KHTML, like Gecko) Chrome/95.0.4638.69 Safari/537.36",Macintosh,Chrome,95.0.4638.69,"OS X",10_15_7,fc80173b241c556346404f5d33b3977b
28,1,"""",image-keyboard-response,60,260792,0.0-9.0-1.4,"""","""","""",EASY,"""","""","""","""",610.3000000715256,img/heart_right.png,j,response,"""","""",j,1,"""",1,"2021-11-15 03:34:31",24.4.120.49,"Mozilla/5.0 (Macintosh; Intel Mac OS X 10_15_7) AppleWebKit/537.36 (KHTML, like Gecko) Chrome/95.0.4638.69 Safari/537.36",Macintosh,Chrome,95.0.4638.69,"OS X",10_15_7,fc80173b241c556346404f5d33b3977b
28,1,"""",image-keyboard-response,61,261295,0.0-9.0-0.5,"""","""","""",EASY,"""","""","""","""",null,img/fixation.png,null,fixation,"""","""","""","""","""",1,"2021-11-15 03:34:31",24.4.120.49,"Mozilla/5.0 (Macintosh; Intel Mac OS X 10_15_7) AppleWebKit/537.36 (KHTML, like Gecko) Chrome/95.0.4638.69 Safari/537.36",Macintosh,Chrome,95.0.4638.69,"OS X",10_15_7,fc80173b241c556346404f5d33b3977b
28,1,"""",image-keyboard-response,62,261866,0.0-9.0-1.5,"""","""","""",EASY,"""","""","""","""",570.1000000238419,img/heart_left.png,f,response,"""","""",f,1,"""",1,"2021-11-15 03:34:31",24.4.120.49,"Mozilla/5.0 (Macintosh; Intel Mac OS X 10_15_7) AppleWebKit/537.36 (KHTML, like Gecko) Chrome/95.0.4638.69 Safari/537.36",Macintosh,Chrome,95.0.4638.69,"OS X",10_15_7,fc80173b241c556346404f5d33b3977b
28,1,"""",image-keyboard-response,63,263623,0.0-9.0-0.6,"""","""","""",EASY,"""","""","""","""",null,img/fixation.png,null,fixation,"""","""","""","""","""",1,"2021-11-15 03:34:31",24.4.120.49,"Mozilla/5.0 (Macintosh; Intel Mac OS X 10_15_7) AppleWebKit/537.36 (KHTML, like Gecko) Chrome/95.0.4638.69 Safari/537.36",Macintosh,Chrome,95.0.4638.69,"OS X",10_15_7,fc80173b241c556346404f5d33b3977b
28,1,"""",image-keyboard-response,64,264108,0.0-9.0-1.6,"""","""","""",EASY,"""","""","""","""",483.2000000476837,img/heart_left.png,f,response,"""","""",f,1,"""",1,"2021-11-15 03:34:31",24.4.120.49,"Mozilla/5.0 (Macintosh; Intel Mac OS X 10_15_7) AppleWebKit/537.36 (KHTML, like Gecko) Chrome/95.0.4638.69 Safari/537.36",Macintosh,Chrome,95.0.4638.69,"OS X",10_15_7,fc80173b241c556346404f5d33b3977b
28,1,"""",image-keyboard-response,65,264363,0.0-9.0-0.7,"""","""","""",EASY,"""","""","""","""",null,img/fixation.png,null,fixation,"""","""","""","""","""",1,"2021-11-15 03:34:31",24.4.120.49,"Mozilla/5.0 (Macintosh; Intel Mac OS X 10_15_7) AppleWebKit/537.36 (KHTML, like Gecko) Chrome/95.0.4638.69 Safari/537.36",Macintosh,Chrome,95.0.4638.69,"OS X",10_15_7,fc80173b241c556346404f5d33b3977b
28,1,"""",image-keyboard-response,66,265037,0.0-9.0-1.7,"""","""","""",EASY,"""","""","""","""",671.2000000476837,img/heart_right.png,j,response,"""","""",j,1,"""",1,"2021-11-15 03:34:31",24.4.120.49,"Mozilla/5.0 (Macintosh; Intel Mac OS X 10_15_7) AppleWebKit/537.36 (KHTML, like Gecko) Chrome/95.0.4638.69 Safari/537.36",Macintosh,Chrome,95.0.4638.69,"OS X",10_15_7,fc80173b241c556346404f5d33b3977b
28,1,"""",image-keyboard-response,67,265788,0.0-9.0-0.8,"""","""","""",EASY,"""","""","""","""",null,img/fixation.png,null,fixation,"""","""","""","""","""",1,"2021-11-15 03:34:31",24.4.120.49,"Mozilla/5.0 (Macintosh; Intel Mac OS X 10_15_7) AppleWebKit/537.36 (KHTML, like Gecko) Chrome/95.0.4638.69 Safari/537.36",Macintosh,Chrome,95.0.4638.69,"OS X",10_15_7,fc80173b241c556346404f5d33b3977b
28,1,"""",image-keyboard-response,68,266416,0.0-9.0-1.8,"""","""","""",EASY,"""","""","""","""",626,img/flower_left.png,j,response,"""","""",j,1,"""",1,"2021-11-15 03:34:31",24.4.120.49,"Mozilla/5.0 (Macintosh; Intel Mac OS X 10_15_7) AppleWebKit/537.36 (KHTML, like Gecko) Chrome/95.0.4638.69 Safari/537.36",Macintosh,Chrome,95.0.4638.69,"OS X",10_15_7,fc80173b241c556346404f5d33b3977b
28,1,"""",image-keyboard-response,69,267420,0.0-9.0-0.9,"""","""","""",EASY,"""","""","""","""",null,img/fixation.png,null,fixation,"""","""","""","""","""",1,"2021-11-15 03:34:31",24.4.120.49,"Mozilla/5.0 (Macintosh; Intel Mac OS X 10_15_7) AppleWebKit/537.36 (KHTML, like Gecko) Chrome/95.0.4638.69 Safari/537.36",Macintosh,Chrome,95.0.4638.69,"OS X",10_15_7,fc80173b241c556346404f5d33b3977b
28,1,"""",image-keyboard-response,70,267901,0.0-9.0-1.9,"""","""","""",EASY,"""","""","""","""",479.60000002384186,img/flower_right.png,j,response,"""","""",f,0,"""",1,"2021-11-15 03:34:31",24.4.120.49,"Mozilla/5.0 (Macintosh; Intel Mac OS X 10_15_7) AppleWebKit/537.36 (KHTML, like Gecko) Chrome/95.0.4638.69 Safari/537.36",Macintosh,Chrome,95.0.4638.69,"OS X",10_15_7,fc80173b241c556346404f5d33b3977b
28,1,"""",html-keyboard-response,71,271408,0.0-10.0,"""","""","""",EASY,"""","""","""","""",3506.399999976158,"<p>You responded correctly on 90% of the trials.</p>
      <p>Your average response time was 639ms.</p>
      <p>Press any key to begin Block 2!</p>",j,debrief,"""","""","""","""","""","""","2021-11-15 03:34:31",24.4.120.49,"Mozilla/5.0 (Macintosh; Intel Mac OS X 10_15_7) AppleWebKit/537.36 (KHTML, like Gecko) Chrome/95.0.4638.69 Safari/537.36",Macintosh,Chrome,95.0.4638.69,"OS X",10_15_7,fc80173b241c556346404f5d33b3977b
28,1,"""",html-button-response,72,272990,0.0-11.0,"""","""","""",EASY,"""","""","""","""",1579.2999999523163,"Block 2",0,"""","""","""","""","""","""","""","2021-11-15 03:34:31",24.4.120.49,"Mozilla/5.0 (Macintosh; Intel Mac OS X 10_15_7) AppleWebKit/537.36 (KHTML, like Gecko) Chrome/95.0.4638.69 Safari/537.36",Macintosh,Chrome,95.0.4638.69,"OS X",10_15_7,fc80173b241c556346404f5d33b3977b
28,1,"""",image-keyboard-response,73,276499,0.0-12.0-0.0,"""","""","""",EASY,"""","""","""","""",null,img/fixation.png,null,fixation,"""","""","""","""","""",2,"2021-11-15 03:34:31",24.4.120.49,"Mozilla/5.0 (Macintosh; Intel Mac OS X 10_15_7) AppleWebKit/537.36 (KHTML, like Gecko) Chrome/95.0.4638.69 Safari/537.36",Macintosh,Chrome,95.0.4638.69,"OS X",10_15_7,fc80173b241c556346404f5d33b3977b
28,1,"""",image-keyboard-response,74,277049,0.0-12.0-1.0,"""","""","""",EASY,"""","""","""","""",548.6999999284744,img/flower_right.png,f,response,"""","""",f,1,"""",2,"2021-11-15 03:34:31",24.4.120.49,"Mozilla/5.0 (Macintosh; Intel Mac OS X 10_15_7) AppleWebKit/537.36 (KHTML, like Gecko) Chrome/95.0.4638.69 Safari/537.36",Macintosh,Chrome,95.0.4638.69,"OS X",10_15_7,fc80173b241c556346404f5d33b3977b
28,1,"""",image-keyboard-response,75,278553,0.0-12.0-0.1,"""","""","""",EASY,"""","""","""","""",null,img/fixation.png,null,fixation,"""","""","""","""","""",2,"2021-11-15 03:34:31",24.4.120.49,"Mozilla/5.0 (Macintosh; Intel Mac OS X 10_15_7) AppleWebKit/537.36 (KHTML, like Gecko) Chrome/95.0.4638.69 Safari/537.36",Macintosh,Chrome,95.0.4638.69,"OS X",10_15_7,fc80173b241c556346404f5d33b3977b
28,1,"""",image-keyboard-response,76,279171,0.0-12.0-1.1,"""","""","""",EASY,"""","""","""","""",616.5,img/heart_left.png,f,response,"""","""",f,1,"""",2,"2021-11-15 03:34:31",24.4.120.49,"Mozilla/5.0 (Macintosh; Intel Mac OS X 10_15_7) AppleWebKit/537.36 (KHTML, like Gecko) Chrome/95.0.4638.69 Safari/537.36",Macintosh,Chrome,95.0.4638.69,"OS X",10_15_7,fc80173b241c556346404f5d33b3977b
28,1,"""",image-keyboard-response,77,280677,0.0-12.0-0.2,"""","""","""",EASY,"""","""","""","""",null,img/fixation.png,null,fixation,"""","""","""","""","""",2,"2021-11-15 03:34:31",24.4.120.49,"Mozilla/5.0 (Macintosh; Intel Mac OS X 10_15_7) AppleWebKit/537.36 (KHTML, like Gecko) Chrome/95.0.4638.69 Safari/537.36",Macintosh,Chrome,95.0.4638.69,"OS X",10_15_7,fc80173b241c556346404f5d33b3977b
28,1,"""",image-keyboard-response,78,281301,0.0-12.0-1.2,"""","""","""",EASY,"""","""","""","""",623.4000000953674,img/heart_right.png,j,response,"""","""",j,1,"""",2,"2021-11-15 03:34:31",24.4.120.49,"Mozilla/5.0 (Macintosh; Intel Mac OS X 10_15_7) AppleWebKit/537.36 (KHTML, like Gecko) Chrome/95.0.4638.69 Safari/537.36",Macintosh,Chrome,95.0.4638.69,"OS X",10_15_7,fc80173b241c556346404f5d33b3977b
28,1,"""",image-keyboard-response,79,282808,0.0-12.0-0.3,"""","""","""",EASY,"""","""","""","""",null,img/fixation.png,null,fixation,"""","""","""","""","""",2,"2021-11-15 03:34:31",24.4.120.49,"Mozilla/5.0 (Macintosh; Intel Mac OS X 10_15_7) AppleWebKit/537.36 (KHTML, like Gecko) Chrome/95.0.4638.69 Safari/537.36",Macintosh,Chrome,95.0.4638.69,"OS X",10_15_7,fc80173b241c556346404f5d33b3977b
28,1,"""",image-keyboard-response,80,283568,0.0-12.0-1.3,"""","""","""",EASY,"""","""","""","""",756.7000000476837,img/heart_right.png,j,response,"""","""",j,1,"""",2,"2021-11-15 03:34:31",24.4.120.49,"Mozilla/5.0 (Macintosh; Intel Mac OS X 10_15_7) AppleWebKit/537.36 (KHTML, like Gecko) Chrome/95.0.4638.69 Safari/537.36",Macintosh,Chrome,95.0.4638.69,"OS X",10_15_7,fc80173b241c556346404f5d33b3977b
28,1,"""",image-keyboard-response,81,284573,0.0-12.0-0.4,"""","""","""",EASY,"""","""","""","""",null,img/fixation.png,null,fixation,"""","""","""","""","""",2,"2021-11-15 03:34:31",24.4.120.49,"Mozilla/5.0 (Macintosh; Intel Mac OS X 10_15_7) AppleWebKit/537.36 (KHTML, like Gecko) Chrome/95.0.4638.69 Safari/537.36",Macintosh,Chrome,95.0.4638.69,"OS X",10_15_7,fc80173b241c556346404f5d33b3977b
28,1,"""",image-keyboard-response,82,285266,0.0-12.0-1.4,"""","""","""",EASY,"""","""","""","""",691.5,img/heart_left.png,f,response,"""","""",f,1,"""",2,"2021-11-15 03:34:31",24.4.120.49,"Mozilla/5.0 (Macintosh; Intel Mac OS X 10_15_7) AppleWebKit/537.36 (KHTML, like Gecko) Chrome/95.0.4638.69 Safari/537.36",Macintosh,Chrome,95.0.4638.69,"OS X",10_15_7,fc80173b241c556346404f5d33b3977b
28,1,"""",image-keyboard-response,83,286270,0.0-12.0-0.5,"""","""","""",EASY,"""","""","""","""",null,img/fixation.png,null,fixation,"""","""","""","""","""",2,"2021-11-15 03:34:31",24.4.120.49,"Mozilla/5.0 (Macintosh; Intel Mac OS X 10_15_7) AppleWebKit/537.36 (KHTML, like Gecko) Chrome/95.0.4638.69 Safari/537.36",Macintosh,Chrome,95.0.4638.69,"OS X",10_15_7,fc80173b241c556346404f5d33b3977b
28,1,"""",image-keyboard-response,84,286870,0.0-12.0-1.5,"""","""","""",EASY,"""","""","""","""",598.0999999046326,img/heart_right.png,j,response,"""","""",j,1,"""",2,"2021-11-15 03:34:31",24.4.120.49,"Mozilla/5.0 (Macintosh; Intel Mac OS X 10_15_7) AppleWebKit/537.36 (KHTML, like Gecko) Chrome/95.0.4638.69 Safari/537.36",Macintosh,Chrome,95.0.4638.69,"OS X",10_15_7,fc80173b241c556346404f5d33b3977b
28,1,"""",image-keyboard-response,85,288875,0.0-12.0-0.6,"""","""","""",EASY,"""","""","""","""",null,img/fixation.png,null,fixation,"""","""","""","""","""",2,"2021-11-15 03:34:31",24.4.120.49,"Mozilla/5.0 (Macintosh; Intel Mac OS X 10_15_7) AppleWebKit/537.36 (KHTML, like Gecko) Chrome/95.0.4638.69 Safari/537.36",Macintosh,Chrome,95.0.4638.69,"OS X",10_15_7,fc80173b241c556346404f5d33b3977b
28,1,"""",image-keyboard-response,86,289340,0.0-12.0-1.6,"""","""","""",EASY,"""","""","""","""",449.3000000715256,img/heart_right.png,j,response,"""","""",j,1,"""",2,"2021-11-15 03:34:31",24.4.120.49,"Mozilla/5.0 (Macintosh; Intel Mac OS X 10_15_7) AppleWebKit/537.36 (KHTML, like Gecko) Chrome/95.0.4638.69 Safari/537.36",Macintosh,Chrome,95.0.4638.69,"OS X",10_15_7,fc80173b241c556346404f5d33b3977b
28,1,"""",image-keyboard-response,87,290346,0.0-12.0-0.7,"""","""","""",EASY,"""","""","""","""",null,img/fixation.png,null,fixation,"""","""","""","""","""",2,"2021-11-15 03:34:31",24.4.120.49,"Mozilla/5.0 (Macintosh; Intel Mac OS X 10_15_7) AppleWebKit/537.36 (KHTML, like Gecko) Chrome/95.0.4638.69 Safari/537.36",Macintosh,Chrome,95.0.4638.69,"OS X",10_15_7,fc80173b241c556346404f5d33b3977b
28,1,"""",image-keyboard-response,88,290995,0.0-12.0-1.7,"""","""","""",EASY,"""","""","""","""",647.5,img/flower_left.png,j,response,"""","""",j,1,"""",2,"2021-11-15 03:34:31",24.4.120.49,"Mozilla/5.0 (Macintosh; Intel Mac OS X 10_15_7) AppleWebKit/537.36 (KHTML, like Gecko) Chrome/95.0.4638.69 Safari/537.36",Macintosh,Chrome,95.0.4638.69,"OS X",10_15_7,fc80173b241c556346404f5d33b3977b
28,1,"""",image-keyboard-response,89,291499,0.0-12.0-0.8,"""","""","""",EASY,"""","""","""","""",null,img/fixation.png,null,fixation,"""","""","""","""","""",2,"2021-11-15 03:34:31",24.4.120.49,"Mozilla/5.0 (Macintosh; Intel Mac OS X 10_15_7) AppleWebKit/537.36 (KHTML, like Gecko) Chrome/95.0.4638.69 Safari/537.36",Macintosh,Chrome,95.0.4638.69,"OS X",10_15_7,fc80173b241c556346404f5d33b3977b
28,1,"""",image-keyboard-response,90,292131,0.0-12.0-1.8,"""","""","""",EASY,"""","""","""","""",631.2000000476837,img/flower_left.png,j,response,"""","""",j,1,"""",2,"2021-11-15 03:34:31",24.4.120.49,"Mozilla/5.0 (Macintosh; Intel Mac OS X 10_15_7) AppleWebKit/537.36 (KHTML, like Gecko) Chrome/95.0.4638.69 Safari/537.36",Macintosh,Chrome,95.0.4638.69,"OS X",10_15_7,fc80173b241c556346404f5d33b3977b
28,1,"""",image-keyboard-response,91,292386,0.0-12.0-0.9,"""","""","""",EASY,"""","""","""","""",null,img/fixation.png,null,fixation,"""","""","""","""","""",2,"2021-11-15 03:34:31",24.4.120.49,"Mozilla/5.0 (Macintosh; Intel Mac OS X 10_15_7) AppleWebKit/537.36 (KHTML, like Gecko) Chrome/95.0.4638.69 Safari/537.36",Macintosh,Chrome,95.0.4638.69,"OS X",10_15_7,fc80173b241c556346404f5d33b3977b
28,1,"""",image-keyboard-response,92,292940,0.0-12.0-1.9,"""","""","""",EASY,"""","""","""","""",552.5,img/flower_left.png,j,response,"""","""",j,1,"""",2,"2021-11-15 03:34:31",24.4.120.49,"Mozilla/5.0 (Macintosh; Intel Mac OS X 10_15_7) AppleWebKit/537.36 (KHTML, like Gecko) Chrome/95.0.4638.69 Safari/537.36",Macintosh,Chrome,95.0.4638.69,"OS X",10_15_7,fc80173b241c556346404f5d33b3977b
28,1,"""",html-keyboard-response,93,295804,0.0-13.0,"""","""","""",EASY,"""","""","""","""",2862.8000000715256,"<p>You responded correctly on 100% of the trials.</p>
      <p>Your average response time was 612ms.</p>
      <p>Press any key to begin Block 3!</p>",j,debrief,"""","""","""","""","""","""","2021-11-15 03:34:31",24.4.120.49,"Mozilla/5.0 (Macintosh; Intel Mac OS X 10_15_7) AppleWebKit/537.36 (KHTML, like Gecko) Chrome/95.0.4638.69 Safari/537.36",Macintosh,Chrome,95.0.4638.69,"OS X",10_15_7,fc80173b241c556346404f5d33b3977b
28,1,"""",html-button-response,94,296961,0.0-14.0,"""","""","""",EASY,"""","""","""","""",1155.2000000476837,"Block 3",0,"""","""","""","""","""","""","""","2021-11-15 03:34:31",24.4.120.49,"Mozilla/5.0 (Macintosh; Intel Mac OS X 10_15_7) AppleWebKit/537.36 (KHTML, like Gecko) Chrome/95.0.4638.69 Safari/537.36",Macintosh,Chrome,95.0.4638.69,"OS X",10_15_7,fc80173b241c556346404f5d33b3977b
28,1,"""",image-keyboard-response,95,300717,0.0-15.0-0.0,"""","""","""",EASY,"""","""","""","""",null,img/fixation.png,null,fixation,"""","""","""","""","""",3,"2021-11-15 03:34:31",24.4.120.49,"Mozilla/5.0 (Macintosh; Intel Mac OS X 10_15_7) AppleWebKit/537.36 (KHTML, like Gecko) Chrome/95.0.4638.69 Safari/537.36",Macintosh,Chrome,95.0.4638.69,"OS X",10_15_7,fc80173b241c556346404f5d33b3977b
28,1,"""",image-keyboard-response,96,301272,0.0-15.0-1.0,"""","""","""",EASY,"""","""","""","""",553.8999999761581,img/heart_left.png,f,response,"""","""",f,1,"""",3,"2021-11-15 03:34:31",24.4.120.49,"Mozilla/5.0 (Macintosh; Intel Mac OS X 10_15_7) AppleWebKit/537.36 (KHTML, like Gecko) Chrome/95.0.4638.69 Safari/537.36",Macintosh,Chrome,95.0.4638.69,"OS X",10_15_7,fc80173b241c556346404f5d33b3977b
28,1,"""",image-keyboard-response,97,301773,0.0-15.0-0.1,"""","""","""",EASY,"""","""","""","""",null,img/fixation.png,null,fixation,"""","""","""","""","""",3,"2021-11-15 03:34:31",24.4.120.49,"Mozilla/5.0 (Macintosh; Intel Mac OS X 10_15_7) AppleWebKit/537.36 (KHTML, like Gecko) Chrome/95.0.4638.69 Safari/537.36",Macintosh,Chrome,95.0.4638.69,"OS X",10_15_7,fc80173b241c556346404f5d33b3977b
28,1,"""",image-keyboard-response,98,302260,0.0-15.0-1.1,"""","""","""",EASY,"""","""","""","""",483.3000000715256,img/heart_right.png,j,response,"""","""",j,1,"""",3,"2021-11-15 03:34:31",24.4.120.49,"Mozilla/5.0 (Macintosh; Intel Mac OS X 10_15_7) AppleWebKit/537.36 (KHTML, like Gecko) Chrome/95.0.4638.69 Safari/537.36",Macintosh,Chrome,95.0.4638.69,"OS X",10_15_7,fc80173b241c556346404f5d33b3977b
28,1,"""",image-keyboard-response,99,302761,0.0-15.0-0.2,"""","""","""",EASY,"""","""","""","""",null,img/fixation.png,null,fixation,"""","""","""","""","""",3,"2021-11-15 03:34:31",24.4.120.49,"Mozilla/5.0 (Macintosh; Intel Mac OS X 10_15_7) AppleWebKit/537.36 (KHTML, like Gecko) Chrome/95.0.4638.69 Safari/537.36",Macintosh,Chrome,95.0.4638.69,"OS X",10_15_7,fc80173b241c556346404f5d33b3977b
28,1,"""",image-keyboard-response,100,303214,0.0-15.0-1.2,"""","""","""",EASY,"""","""","""","""",451.89999997615814,img/heart_right.png,j,response,"""","""",j,1,"""",3,"2021-11-15 03:34:31",24.4.120.49,"Mozilla/5.0 (Macintosh; Intel Mac OS X 10_15_7) AppleWebKit/537.36 (KHTML, like Gecko) Chrome/95.0.4638.69 Safari/537.36",Macintosh,Chrome,95.0.4638.69,"OS X",10_15_7,fc80173b241c556346404f5d33b3977b
28,1,"""",image-keyboard-response,101,304715,0.0-15.0-0.3,"""","""","""",EASY,"""","""","""","""",null,img/fixation.png,null,fixation,"""","""","""","""","""",3,"2021-11-15 03:34:31",24.4.120.49,"Mozilla/5.0 (Macintosh; Intel Mac OS X 10_15_7) AppleWebKit/537.36 (KHTML, like Gecko) Chrome/95.0.4638.69 Safari/537.36",Macintosh,Chrome,95.0.4638.69,"OS X",10_15_7,fc80173b241c556346404f5d33b3977b
28,1,"""",image-keyboard-response,102,305188,0.0-15.0-1.3,"""","""","""",EASY,"""","""","""","""",471.2999999523163,img/heart_left.png,f,response,"""","""",f,1,"""",3,"2021-11-15 03:34:31",24.4.120.49,"Mozilla/5.0 (Macintosh; Intel Mac OS X 10_15_7) AppleWebKit/537.36 (KHTML, like Gecko) Chrome/95.0.4638.69 Safari/537.36",Macintosh,Chrome,95.0.4638.69,"OS X",10_15_7,fc80173b241c556346404f5d33b3977b
28,1,"""",image-keyboard-response,103,306939,0.0-15.0-0.4,"""","""","""",EASY,"""","""","""","""",null,img/fixation.png,null,fixation,"""","""","""","""","""",3,"2021-11-15 03:34:31",24.4.120.49,"Mozilla/5.0 (Macintosh; Intel Mac OS X 10_15_7) AppleWebKit/537.36 (KHTML, like Gecko) Chrome/95.0.4638.69 Safari/537.36",Macintosh,Chrome,95.0.4638.69,"OS X",10_15_7,fc80173b241c556346404f5d33b3977b
28,1,"""",image-keyboard-response,104,307345,0.0-15.0-1.4,"""","""","""",EASY,"""","""","""","""",405.10000002384186,img/heart_left.png,f,response,"""","""",f,1,"""",3,"2021-11-15 03:34:31",24.4.120.49,"Mozilla/5.0 (Macintosh; Intel Mac OS X 10_15_7) AppleWebKit/537.36 (KHTML, like Gecko) Chrome/95.0.4638.69 Safari/537.36",Macintosh,Chrome,95.0.4638.69,"OS X",10_15_7,fc80173b241c556346404f5d33b3977b
28,1,"""",image-keyboard-response,105,308849,0.0-15.0-0.5,"""","""","""",EASY,"""","""","""","""",null,img/fixation.png,null,fixation,"""","""","""","""","""",3,"2021-11-15 03:34:31",24.4.120.49,"Mozilla/5.0 (Macintosh; Intel Mac OS X 10_15_7) AppleWebKit/537.36 (KHTML, like Gecko) Chrome/95.0.4638.69 Safari/537.36",Macintosh,Chrome,95.0.4638.69,"OS X",10_15_7,fc80173b241c556346404f5d33b3977b
28,1,"""",image-keyboard-response,106,309430,0.0-15.0-1.5,"""","""","""",EASY,"""","""","""","""",577.3999999761581,img/flower_left.png,j,response,"""","""",j,1,"""",3,"2021-11-15 03:34:31",24.4.120.49,"Mozilla/5.0 (Macintosh; Intel Mac OS X 10_15_7) AppleWebKit/537.36 (KHTML, like Gecko) Chrome/95.0.4638.69 Safari/537.36",Macintosh,Chrome,95.0.4638.69,"OS X",10_15_7,fc80173b241c556346404f5d33b3977b
28,1,"""",image-keyboard-response,107,310434,0.0-15.0-0.6,"""","""","""",EASY,"""","""","""","""",null,img/fixation.png,null,fixation,"""","""","""","""","""",3,"2021-11-15 03:34:31",24.4.120.49,"Mozilla/5.0 (Macintosh; Intel Mac OS X 10_15_7) AppleWebKit/537.36 (KHTML, like Gecko) Chrome/95.0.4638.69 Safari/537.36",Macintosh,Chrome,95.0.4638.69,"OS X",10_15_7,fc80173b241c556346404f5d33b3977b
28,1,"""",image-keyboard-response,108,311138,0.0-15.0-1.6,"""","""","""",EASY,"""","""","""","""",701.6000000238419,img/heart_right.png,f,response,"""","""",j,0,"""",3,"2021-11-15 03:34:31",24.4.120.49,"Mozilla/5.0 (Macintosh; Intel Mac OS X 10_15_7) AppleWebKit/537.36 (KHTML, like Gecko) Chrome/95.0.4638.69 Safari/537.36",Macintosh,Chrome,95.0.4638.69,"OS X",10_15_7,fc80173b241c556346404f5d33b3977b
28,1,"""",image-keyboard-response,109,313139,0.0-15.0-0.7,"""","""","""",EASY,"""","""","""","""",null,img/fixation.png,null,fixation,"""","""","""","""","""",3,"2021-11-15 03:34:31",24.4.120.49,"Mozilla/5.0 (Macintosh; Intel Mac OS X 10_15_7) AppleWebKit/537.36 (KHTML, like Gecko) Chrome/95.0.4638.69 Safari/537.36",Macintosh,Chrome,95.0.4638.69,"OS X",10_15_7,fc80173b241c556346404f5d33b3977b
28,1,"""",image-keyboard-response,110,313729,0.0-15.0-1.7,"""","""","""",EASY,"""","""","""","""",588.6000000238419,img/heart_left.png,f,response,"""","""",f,1,"""",3,"2021-11-15 03:34:31",24.4.120.49,"Mozilla/5.0 (Macintosh; Intel Mac OS X 10_15_7) AppleWebKit/537.36 (KHTML, like Gecko) Chrome/95.0.4638.69 Safari/537.36",Macintosh,Chrome,95.0.4638.69,"OS X",10_15_7,fc80173b241c556346404f5d33b3977b
28,1,"""",image-keyboard-response,111,315485,0.0-15.0-0.8,"""","""","""",EASY,"""","""","""","""",null,img/fixation.png,null,fixation,"""","""","""","""","""",3,"2021-11-15 03:34:31",24.4.120.49,"Mozilla/5.0 (Macintosh; Intel Mac OS X 10_15_7) AppleWebKit/537.36 (KHTML, like Gecko) Chrome/95.0.4638.69 Safari/537.36",Macintosh,Chrome,95.0.4638.69,"OS X",10_15_7,fc80173b241c556346404f5d33b3977b
28,1,"""",image-keyboard-response,112,316221,0.0-15.0-1.8,"""","""","""",EASY,"""","""","""","""",733.5,img/flower_right.png,f,response,"""","""",f,1,"""",3,"2021-11-15 03:34:31",24.4.120.49,"Mozilla/5.0 (Macintosh; Intel Mac OS X 10_15_7) AppleWebKit/537.36 (KHTML, like Gecko) Chrome/95.0.4638.69 Safari/537.36",Macintosh,Chrome,95.0.4638.69,"OS X",10_15_7,fc80173b241c556346404f5d33b3977b
28,1,"""",image-keyboard-response,113,318224,0.0-15.0-0.9,"""","""","""",EASY,"""","""","""","""",null,img/fixation.png,null,fixation,"""","""","""","""","""",3,"2021-11-15 03:34:31",24.4.120.49,"Mozilla/5.0 (Macintosh; Intel Mac OS X 10_15_7) AppleWebKit/537.36 (KHTML, like Gecko) Chrome/95.0.4638.69 Safari/537.36",Macintosh,Chrome,95.0.4638.69,"OS X",10_15_7,fc80173b241c556346404f5d33b3977b
28,1,"""",image-keyboard-response,114,318861,0.0-15.0-1.9,"""","""","""",EASY,"""","""","""","""",635.1000000238419,img/flower_left.png,j,response,"""","""",j,1,"""",3,"2021-11-15 03:34:31",24.4.120.49,"Mozilla/5.0 (Macintosh; Intel Mac OS X 10_15_7) AppleWebKit/537.36 (KHTML, like Gecko) Chrome/95.0.4638.69 Safari/537.36",Macintosh,Chrome,95.0.4638.69,"OS X",10_15_7,fc80173b241c556346404f5d33b3977b
28,1,"""",html-keyboard-response,115,321631,0.0-16.0,"""","""","""",EASY,"""","""","""","""",2768.899999976158,"<p>You responded correctly on 90% of the trials.</p>
      <p>Your average response time was 544ms.</p>
      <p>Press any key to begin the final Block 4!</p>",j,debrief,"""","""","""","""","""","""","2021-11-15 03:34:31",24.4.120.49,"Mozilla/5.0 (Macintosh; Intel Mac OS X 10_15_7) AppleWebKit/537.36 (KHTML, like Gecko) Chrome/95.0.4638.69 Safari/537.36",Macintosh,Chrome,95.0.4638.69,"OS X",10_15_7,fc80173b241c556346404f5d33b3977b
28,1,"""",html-button-response,116,322824,0.0-17.0,"""","""","""",EASY,"""","""","""","""",1190.8999999761581,"Block 4",0,"""","""","""","""","""","""","""","2021-11-15 03:34:31",24.4.120.49,"Mozilla/5.0 (Macintosh; Intel Mac OS X 10_15_7) AppleWebKit/537.36 (KHTML, like Gecko) Chrome/95.0.4638.69 Safari/537.36",Macintosh,Chrome,95.0.4638.69,"OS X",10_15_7,fc80173b241c556346404f5d33b3977b
28,1,"""",image-keyboard-response,117,326583,0.0-18.0-0.0,"""","""","""",EASY,"""","""","""","""",null,img/fixation.png,null,fixation,"""","""","""","""","""",4,"2021-11-15 03:34:31",24.4.120.49,"Mozilla/5.0 (Macintosh; Intel Mac OS X 10_15_7) AppleWebKit/537.36 (KHTML, like Gecko) Chrome/95.0.4638.69 Safari/537.36",Macintosh,Chrome,95.0.4638.69,"OS X",10_15_7,fc80173b241c556346404f5d33b3977b
28,1,"""",image-keyboard-response,118,327142,0.0-18.0-1.0,"""","""","""",EASY,"""","""","""","""",557.1000000238419,img/heart_right.png,f,response,"""","""",j,0,"""",4,"2021-11-15 03:34:31",24.4.120.49,"Mozilla/5.0 (Macintosh; Intel Mac OS X 10_15_7) AppleWebKit/537.36 (KHTML, like Gecko) Chrome/95.0.4638.69 Safari/537.36",Macintosh,Chrome,95.0.4638.69,"OS X",10_15_7,fc80173b241c556346404f5d33b3977b
28,1,"""",image-keyboard-response,119,329143,0.0-18.0-0.1,"""","""","""",EASY,"""","""","""","""",null,img/fixation.png,null,fixation,"""","""","""","""","""",4,"2021-11-15 03:34:31",24.4.120.49,"Mozilla/5.0 (Macintosh; Intel Mac OS X 10_15_7) AppleWebKit/537.36 (KHTML, like Gecko) Chrome/95.0.4638.69 Safari/537.36",Macintosh,Chrome,95.0.4638.69,"OS X",10_15_7,fc80173b241c556346404f5d33b3977b
28,1,"""",image-keyboard-response,120,329840,0.0-18.0-1.1,"""","""","""",EASY,"""","""","""","""",693.3999999761581,img/flower_right.png,f,response,"""","""",f,1,"""",4,"2021-11-15 03:34:31",24.4.120.49,"Mozilla/5.0 (Macintosh; Intel Mac OS X 10_15_7) AppleWebKit/537.36 (KHTML, like Gecko) Chrome/95.0.4638.69 Safari/537.36",Macintosh,Chrome,95.0.4638.69,"OS X",10_15_7,fc80173b241c556346404f5d33b3977b
28,1,"""",image-keyboard-response,121,330595,0.0-18.0-0.2,"""","""","""",EASY,"""","""","""","""",null,img/fixation.png,null,fixation,"""","""","""","""","""",4,"2021-11-15 03:34:31",24.4.120.49,"Mozilla/5.0 (Macintosh; Intel Mac OS X 10_15_7) AppleWebKit/537.36 (KHTML, like Gecko) Chrome/95.0.4638.69 Safari/537.36",Macintosh,Chrome,95.0.4638.69,"OS X",10_15_7,fc80173b241c556346404f5d33b3977b
28,1,"""",image-keyboard-response,122,331562,0.0-18.0-1.2,"""","""","""",EASY,"""","""","""","""",966.3999999761581,img/flower_left.png,j,response,"""","""",j,1,"""",4,"2021-11-15 03:34:31",24.4.120.49,"Mozilla/5.0 (Macintosh; Intel Mac OS X 10_15_7) AppleWebKit/537.36 (KHTML, like Gecko) Chrome/95.0.4638.69 Safari/537.36",Macintosh,Chrome,95.0.4638.69,"OS X",10_15_7,fc80173b241c556346404f5d33b3977b
28,1,"""",image-keyboard-response,123,333317,0.0-18.0-0.3,"""","""","""",EASY,"""","""","""","""",null,img/fixation.png,null,fixation,"""","""","""","""","""",4,"2021-11-15 03:34:31",24.4.120.49,"Mozilla/5.0 (Macintosh; Intel Mac OS X 10_15_7) AppleWebKit/537.36 (KHTML, like Gecko) Chrome/95.0.4638.69 Safari/537.36",Macintosh,Chrome,95.0.4638.69,"OS X",10_15_7,fc80173b241c556346404f5d33b3977b
28,1,"""",image-keyboard-response,124,333997,0.0-18.0-1.3,"""","""","""",EASY,"""","""","""","""",678.9000000953674,img/flower_right.png,f,response,"""","""",f,1,"""",4,"2021-11-15 03:34:31",24.4.120.49,"Mozilla/5.0 (Macintosh; Intel Mac OS X 10_15_7) AppleWebKit/537.36 (KHTML, like Gecko) Chrome/95.0.4638.69 Safari/537.36",Macintosh,Chrome,95.0.4638.69,"OS X",10_15_7,fc80173b241c556346404f5d33b3977b
28,1,"""",image-keyboard-response,125,334751,0.0-18.0-0.4,"""","""","""",EASY,"""","""","""","""",null,img/fixation.png,null,fixation,"""","""","""","""","""",4,"2021-11-15 03:34:31",24.4.120.49,"Mozilla/5.0 (Macintosh; Intel Mac OS X 10_15_7) AppleWebKit/537.36 (KHTML, like Gecko) Chrome/95.0.4638.69 Safari/537.36",Macintosh,Chrome,95.0.4638.69,"OS X",10_15_7,fc80173b241c556346404f5d33b3977b
28,1,"""",image-keyboard-response,126,335608,0.0-18.0-1.4,"""","""","""",EASY,"""","""","""","""",855.3000000715256,img/heart_right.png,j,response,"""","""",j,1,"""",4,"2021-11-15 03:34:31",24.4.120.49,"Mozilla/5.0 (Macintosh; Intel Mac OS X 10_15_7) AppleWebKit/537.36 (KHTML, like Gecko) Chrome/95.0.4638.69 Safari/537.36",Macintosh,Chrome,95.0.4638.69,"OS X",10_15_7,fc80173b241c556346404f5d33b3977b
28,1,"""",image-keyboard-response,127,336111,0.0-18.0-0.5,"""","""","""",EASY,"""","""","""","""",null,img/fixation.png,null,fixation,"""","""","""","""","""",4,"2021-11-15 03:34:31",24.4.120.49,"Mozilla/5.0 (Macintosh; Intel Mac OS X 10_15_7) AppleWebKit/537.36 (KHTML, like Gecko) Chrome/95.0.4638.69 Safari/537.36",Macintosh,Chrome,95.0.4638.69,"OS X",10_15_7,fc80173b241c556346404f5d33b3977b
28,1,"""",image-keyboard-response,128,337211,0.0-18.0-1.5,"""","""","""",EASY,"""","""","""","""",1098,img/flower_left.png,j,response,"""","""",j,1,"""",4,"2021-11-15 03:34:31",24.4.120.49,"Mozilla/5.0 (Macintosh; Intel Mac OS X 10_15_7) AppleWebKit/537.36 (KHTML, like Gecko) Chrome/95.0.4638.69 Safari/537.36",Macintosh,Chrome,95.0.4638.69,"OS X",10_15_7,fc80173b241c556346404f5d33b3977b
28,1,"""",image-keyboard-response,129,339215,0.0-18.0-0.6,"""","""","""",EASY,"""","""","""","""",null,img/fixation.png,null,fixation,"""","""","""","""","""",4,"2021-11-15 03:34:31",24.4.120.49,"Mozilla/5.0 (Macintosh; Intel Mac OS X 10_15_7) AppleWebKit/537.36 (KHTML, like Gecko) Chrome/95.0.4638.69 Safari/537.36",Macintosh,Chrome,95.0.4638.69,"OS X",10_15_7,fc80173b241c556346404f5d33b3977b
28,1,"""",image-keyboard-response,130,339692,0.0-18.0-1.6,"""","""","""",EASY,"""","""","""","""",475.10000002384186,img/heart_right.png,j,response,"""","""",j,1,"""",4,"2021-11-15 03:34:31",24.4.120.49,"Mozilla/5.0 (Macintosh; Intel Mac OS X 10_15_7) AppleWebKit/537.36 (KHTML, like Gecko) Chrome/95.0.4638.69 Safari/537.36",Macintosh,Chrome,95.0.4638.69,"OS X",10_15_7,fc80173b241c556346404f5d33b3977b
28,1,"""",image-keyboard-response,131,341444,0.0-18.0-0.7,"""","""","""",EASY,"""","""","""","""",null,img/fixation.png,null,fixation,"""","""","""","""","""",4,"2021-11-15 03:34:31",24.4.120.49,"Mozilla/5.0 (Macintosh; Intel Mac OS X 10_15_7) AppleWebKit/537.36 (KHTML, like Gecko) Chrome/95.0.4638.69 Safari/537.36",Macintosh,Chrome,95.0.4638.69,"OS X",10_15_7,fc80173b241c556346404f5d33b3977b
28,1,"""",image-keyboard-response,132,341893,0.0-18.0-1.7,"""","""","""",EASY,"""","""","""","""",447.5,img/heart_right.png,j,response,"""","""",j,1,"""",4,"2021-11-15 03:34:31",24.4.120.49,"Mozilla/5.0 (Macintosh; Intel Mac OS X 10_15_7) AppleWebKit/537.36 (KHTML, like Gecko) Chrome/95.0.4638.69 Safari/537.36",Macintosh,Chrome,95.0.4638.69,"OS X",10_15_7,fc80173b241c556346404f5d33b3977b
28,1,"""",image-keyboard-response,133,342159,0.0-18.0-0.8,"""","""","""",EASY,"""","""","""","""",null,img/fixation.png,null,fixation,"""","""","""","""","""",4,"2021-11-15 03:34:31",24.4.120.49,"Mozilla/5.0 (Macintosh; Intel Mac OS X 10_15_7) AppleWebKit/537.36 (KHTML, like Gecko) Chrome/95.0.4638.69 Safari/537.36",Macintosh,Chrome,95.0.4638.69,"OS X",10_15_7,fc80173b241c556346404f5d33b3977b
28,1,"""",image-keyboard-response,134,342958,0.0-18.0-1.8,"""","""","""",EASY,"""","""","""","""",797.2999999523163,img/flower_left.png,j,response,"""","""",j,1,"""",4,"2021-11-15 03:34:31",24.4.120.49,"Mozilla/5.0 (Macintosh; Intel Mac OS X 10_15_7) AppleWebKit/537.36 (KHTML, like Gecko) Chrome/95.0.4638.69 Safari/537.36",Macintosh,Chrome,95.0.4638.69,"OS X",10_15_7,fc80173b241c556346404f5d33b3977b
28,1,"""",image-keyboard-response,135,343459,0.0-18.0-0.9,"""","""","""",EASY,"""","""","""","""",null,img/fixation.png,null,fixation,"""","""","""","""","""",4,"2021-11-15 03:34:31",24.4.120.49,"Mozilla/5.0 (Macintosh; Intel Mac OS X 10_15_7) AppleWebKit/537.36 (KHTML, like Gecko) Chrome/95.0.4638.69 Safari/537.36",Macintosh,Chrome,95.0.4638.69,"OS X",10_15_7,fc80173b241c556346404f5d33b3977b
28,1,"""",image-keyboard-response,136,344518,0.0-18.0-1.9,"""","""","""",EASY,"""","""","""","""",1058.1000000238419,img/flower_right.png,f,response,"""","""",f,1,"""",4,"2021-11-15 03:34:31",24.4.120.49,"Mozilla/5.0 (Macintosh; Intel Mac OS X 10_15_7) AppleWebKit/537.36 (KHTML, like Gecko) Chrome/95.0.4638.69 Safari/537.36",Macintosh,Chrome,95.0.4638.69,"OS X",10_15_7,fc80173b241c556346404f5d33b3977b
28,1,"""",html-keyboard-response,137,347313,0.0-19.0,"""","""","""",EASY,"""","""","""","""",2794.600000023842,"<p>You responded correctly on 90% of the trials.</p>
      <p>Your average response time was 786ms.</p>
      <p>Press any key to finish the cognitive experiment!</p>",j,debrief,"""","""","""","""","""","""","2021-11-15 03:34:31",24.4.120.49,"Mozilla/5.0 (Macintosh; Intel Mac OS X 10_15_7) AppleWebKit/537.36 (KHTML, like Gecko) Chrome/95.0.4638.69 Safari/537.36",Macintosh,Chrome,95.0.4638.69,"OS X",10_15_7,fc80173b241c556346404f5d33b3977b
28,1,"""",html-button-response,138,349591,0.0-20.0,"""","""","""",EASY,"""","""","""","""",2277.399999976158,"<p>Thank you for your participation! </p><p>The last thing will be a series of questions to capture demographic information.<p><p>When you are ready to answer a few questions, please press START.</p>",0,"""","""","""","""","""","""","""","2021-11-15 03:34:31",24.4.120.49,"Mozilla/5.0 (Macintosh; Intel Mac OS X 10_15_7) AppleWebKit/537.36 (KHTML, like Gecko) Chrome/95.0.4638.69 Safari/537.36",Macintosh,Chrome,95.0.4638.69,"OS X",10_15_7,fc80173b241c556346404f5d33b3977b
28,1,"""",survey-text,139,360600,0.0-21.0,"""","""","""",EASY,"""","""","""","""",9249.199999928474,"""","{""Q0"":""29"",""Q1"":""01/02/1993"",""Q2"":""White""}",age,"""","""","""","""","""","""","2021-11-15 03:34:31",24.4.120.49,"Mozilla/5.0 (Macintosh; Intel Mac OS X 10_15_7) AppleWebKit/537.36 (KHTML, like Gecko) Chrome/95.0.4638.69 Safari/537.36",Macintosh,Chrome,95.0.4638.69,"OS X",10_15_7,fc80173b241c556346404f5d33b3977b
28,1,"""",survey-multi-choice,140,373356,0.0-22.0,"""","""","""",EASY,"""","""","""","""",12754.100000023842,"""","{""Q0"":""Masters degree"",""Q1"":""Full-time student""}",ses,"[0,1]","""","""","""","""","""","2021-11-15 03:34:31",24.4.120.49,"Mozilla/5.0 (Macintosh; Intel Mac OS X 10_15_7) AppleWebKit/537.36 (KHTML, like Gecko) Chrome/95.0.4638.69 Safari/537.36",Macintosh,Chrome,95.0.4638.69,"OS X",10_15_7,fc80173b241c556346404f5d33b3977b
28,1,"""",survey-multi-choice,141,378764,0.0-23.0,"""","""","""",EASY,"""","""","""","""",5404,"""","{""Q0"":""20000""}",income,[0],"""","""","""","""","""","2021-11-15 03:34:31",24.4.120.49,"Mozilla/5.0 (Macintosh; Intel Mac OS X 10_15_7) AppleWebKit/537.36 (KHTML, like Gecko) Chrome/95.0.4638.69 Safari/537.36",Macintosh,Chrome,95.0.4638.69,"OS X",10_15_7,fc80173b241c556346404f5d33b3977b
28,1,"""",survey-multi-choice,142,381143,0.0-24.0,"""","""","""",EASY,"""","""","""","""",2375.899999976158,"""","{""Q0"":""2""}",household_size,[0],"""","""","""","""","""","2021-11-15 03:34:31",24.4.120.49,"Mozilla/5.0 (Macintosh; Intel Mac OS X 10_15_7) AppleWebKit/537.36 (KHTML, like Gecko) Chrome/95.0.4638.69 Safari/537.36",Macintosh,Chrome,95.0.4638.69,"OS X",10_15_7,fc80173b241c556346404f5d33b3977b
28,1,"""",html-button-response,143,382296,0.0-25.0,"""","""","""",EASY,"""","""","""","""",1148.2999999523163,"<p>Thanks! You have finished the entire study.</p><p>Please press FINISH to save your data and return to Prolific for compensation.</p>",0,"""","""","""","""","""","""","""","2021-11-15 03:34:31",24.4.120.49,"Mozilla/5.0 (Macintosh; Intel Mac OS X 10_15_7) AppleWebKit/537.36 (KHTML, like Gecko) Chrome/95.0.4638.69 Safari/537.36",Macintosh,Chrome,95.0.4638.69,"OS X",10_15_7,fc80173b241c556346404f5d33b3977b
