run_id,condition,success,timeout,failed_images,failed_audio,failed_video,trial_type,trial_index,time_elapsed,internal_node_id,subject_id,rt,stimulus,response,view_history,task,correct_response,accuracy,screen_id,recorded_at,ip,user_agent,device,browser,browser_version,platform,platform_version,source_code_version,study_id,session_id,group,question_order,block,correct
6,1,true,false,[],[],[],preload,0,308,0.0-0.0,"""","""","""","""","""","""","""","""","""",2021-10-21 04:47:51,24.4.120.49,"Mozilla/5.0 (Macintosh; Intel Mac OS X 10_15_7) AppleWebKit/605.1.15 (KHTML, like Gecko) Version/15.0 Safari/605.1.15",Macintosh,Safari,15.0,OS X,10_15_7,ebc9e4f92b8ec2c3b299c881282ee4df
6,1,true,"""","""","""","""",fullscreen,1,2215,0.0-1.0,"""","""","""","""","""","""","""","""","""",2021-10-21 04:47:51,24.4.120.49,"Mozilla/5.0 (Macintosh; Intel Mac OS X 10_15_7) AppleWebKit/605.1.15 (KHTML, like Gecko) Version/15.0 Safari/605.1.15",Macintosh,Safari,15.0,OS X,10_15_7,ebc9e4f92b8ec2c3b299c881282ee4df
6,1,"""","""","""","""","""",html-button-response,2,2957,0.0-2.0,"""",740,<p>Welcome! Thank you so much for participating in this study. Press START to begin.</p><br>,0,"""","""","""","""","""",2021-10-21 04:47:51,24.4.120.49,"Mozilla/5.0 (Macintosh; Intel Mac OS X 10_15_7) AppleWebKit/605.1.15 (KHTML, like Gecko) Version/15.0 Safari/605.1.15",Macintosh,Safari,15.0,OS X,10_15_7,ebc9e4f92b8ec2c3b299c881282ee4df
6,1,"""","""","""","""","""",instructions,3,7727,0.0-3.0-0.0,"""",4769,"""","""","[{""page_index"":0,""viewing_time"":1259},{""page_index"":1,""viewing_time"":666},{""page_index"":2,""viewing_time"":571.0000000000009},{""page_index"":3,""viewing_time"":540.9999999999991},{""page_index"":4,""viewing_time"":562},{""page_index"":5,""viewing_time"":551},{""page_index"":6,""viewing_time"":619}]","""","""","""","""",2021-10-21 04:47:51,24.4.120.49,"Mozilla/5.0 (Macintosh; Intel Mac OS X 10_15_7) AppleWebKit/605.1.15 (KHTML, like Gecko) Version/15.0 Safari/605.1.15",Macintosh,Safari,15.0,OS X,10_15_7,ebc9e4f92b8ec2c3b299c881282ee4df
6,1,"""","""","""","""","""",image-button-response,4,10471,0.0-3.0-1.0,"""",2727,begin_practice.png,0,"""","""","""","""","""",2021-10-21 04:47:51,24.4.120.49,"Mozilla/5.0 (Macintosh; Intel Mac OS X 10_15_7) AppleWebKit/605.1.15 (KHTML, like Gecko) Version/15.0 Safari/605.1.15",Macintosh,Safari,15.0,OS X,10_15_7,ebc9e4f92b8ec2c3b299c881282ee4df
6,1,"""","""","""","""","""",image-keyboard-response,5,14475,0.0-3.0-2.0-0.0,"""",null,img/fixation.png,null,"""",fixation,"""","""","""",2021-10-21 04:47:51,24.4.120.49,"Mozilla/5.0 (Macintosh; Intel Mac OS X 10_15_7) AppleWebKit/605.1.15 (KHTML, like Gecko) Version/15.0 Safari/605.1.15",Macintosh,Safari,15.0,OS X,10_15_7,ebc9e4f92b8ec2c3b299c881282ee4df
6,1,"""","""","""","""","""",image-keyboard-response,6,15470,0.0-3.0-2.0-1.0,"""",992,img/heart_left.png,f,"""",practice,f,1,"""",2021-10-21 04:47:51,24.4.120.49,"Mozilla/5.0 (Macintosh; Intel Mac OS X 10_15_7) AppleWebKit/605.1.15 (KHTML, like Gecko) Version/15.0 Safari/605.1.15",Macintosh,Safari,15.0,OS X,10_15_7,ebc9e4f92b8ec2c3b299c881282ee4df
6,1,"""","""","""","""","""",html-keyboard-response,7,16472,0.0-3.0-2.0-2.0,"""",null,CORRECT!,null,"""","""","""","""",feedback,2021-10-21 04:47:51,24.4.120.49,"Mozilla/5.0 (Macintosh; Intel Mac OS X 10_15_7) AppleWebKit/605.1.15 (KHTML, like Gecko) Version/15.0 Safari/605.1.15",Macintosh,Safari,15.0,OS X,10_15_7,ebc9e4f92b8ec2c3b299c881282ee4df
6,1,"""","""","""","""","""",image-keyboard-response,8,17486,0.0-3.0-2.0-0.1,"""",null,img/fixation.png,null,"""",fixation,"""","""","""",2021-10-21 04:47:51,24.4.120.49,"Mozilla/5.0 (Macintosh; Intel Mac OS X 10_15_7) AppleWebKit/605.1.15 (KHTML, like Gecko) Version/15.0 Safari/605.1.15",Macintosh,Safari,15.0,OS X,10_15_7,ebc9e4f92b8ec2c3b299c881282ee4df
6,1,"""","""","""","""","""",image-keyboard-response,9,17991,0.0-3.0-2.0-1.1,"""",492,img/heart_left.png,f,"""",practice,f,1,"""",2021-10-21 04:47:51,24.4.120.49,"Mozilla/5.0 (Macintosh; Intel Mac OS X 10_15_7) AppleWebKit/605.1.15 (KHTML, like Gecko) Version/15.0 Safari/605.1.15",Macintosh,Safari,15.0,OS X,10_15_7,ebc9e4f92b8ec2c3b299c881282ee4df
6,1,"""","""","""","""","""",html-keyboard-response,10,18992,0.0-3.0-2.0-2.1,"""",null,CORRECT!,null,"""","""","""","""",feedback,2021-10-21 04:47:51,24.4.120.49,"Mozilla/5.0 (Macintosh; Intel Mac OS X 10_15_7) AppleWebKit/605.1.15 (KHTML, like Gecko) Version/15.0 Safari/605.1.15",Macintosh,Safari,15.0,OS X,10_15_7,ebc9e4f92b8ec2c3b299c881282ee4df
6,1,"""","""","""","""","""",image-keyboard-response,11,19994,0.0-3.0-2.0-0.2,"""",null,img/fixation.png,null,"""",fixation,"""","""","""",2021-10-21 04:47:51,24.4.120.49,"Mozilla/5.0 (Macintosh; Intel Mac OS X 10_15_7) AppleWebKit/605.1.15 (KHTML, like Gecko) Version/15.0 Safari/605.1.15",Macintosh,Safari,15.0,OS X,10_15_7,ebc9e4f92b8ec2c3b299c881282ee4df
6,1,"""","""","""","""","""",image-keyboard-response,12,21081,0.0-3.0-2.0-1.2,"""",1084,img/flower_right.png,f,"""",practice,f,1,"""",2021-10-21 04:47:51,24.4.120.49,"Mozilla/5.0 (Macintosh; Intel Mac OS X 10_15_7) AppleWebKit/605.1.15 (KHTML, like Gecko) Version/15.0 Safari/605.1.15",Macintosh,Safari,15.0,OS X,10_15_7,ebc9e4f92b8ec2c3b299c881282ee4df
6,1,"""","""","""","""","""",html-keyboard-response,13,22082,0.0-3.0-2.0-2.2,"""",null,CORRECT!,null,"""","""","""","""",feedback,2021-10-21 04:47:51,24.4.120.49,"Mozilla/5.0 (Macintosh; Intel Mac OS X 10_15_7) AppleWebKit/605.1.15 (KHTML, like Gecko) Version/15.0 Safari/605.1.15",Macintosh,Safari,15.0,OS X,10_15_7,ebc9e4f92b8ec2c3b299c881282ee4df
6,1,"""","""","""","""","""",image-keyboard-response,14,24084,0.0-3.0-2.0-0.3,"""",null,img/fixation.png,null,"""",fixation,"""","""","""",2021-10-21 04:47:51,24.4.120.49,"Mozilla/5.0 (Macintosh; Intel Mac OS X 10_15_7) AppleWebKit/605.1.15 (KHTML, like Gecko) Version/15.0 Safari/605.1.15",Macintosh,Safari,15.0,OS X,10_15_7,ebc9e4f92b8ec2c3b299c881282ee4df
6,1,"""","""","""","""","""",image-keyboard-response,15,24632,0.0-3.0-2.0-1.3,"""",547.0000000000036,img/heart_right.png,j,"""",practice,j,1,"""",2021-10-21 04:47:51,24.4.120.49,"Mozilla/5.0 (Macintosh; Intel Mac OS X 10_15_7) AppleWebKit/605.1.15 (KHTML, like Gecko) Version/15.0 Safari/605.1.15",Macintosh,Safari,15.0,OS X,10_15_7,ebc9e4f92b8ec2c3b299c881282ee4df
6,1,"""","""","""","""","""",html-keyboard-response,16,25634,0.0-3.0-2.0-2.3,"""",null,CORRECT!,null,"""","""","""","""",feedback,2021-10-21 04:47:51,24.4.120.49,"Mozilla/5.0 (Macintosh; Intel Mac OS X 10_15_7) AppleWebKit/605.1.15 (KHTML, like Gecko) Version/15.0 Safari/605.1.15",Macintosh,Safari,15.0,OS X,10_15_7,ebc9e4f92b8ec2c3b299c881282ee4df
6,1,"""","""","""","""","""",image-keyboard-response,17,27637,0.0-3.0-2.0-0.4,"""",null,img/fixation.png,null,"""",fixation,"""","""","""",2021-10-21 04:47:51,24.4.120.49,"Mozilla/5.0 (Macintosh; Intel Mac OS X 10_15_7) AppleWebKit/605.1.15 (KHTML, like Gecko) Version/15.0 Safari/605.1.15",Macintosh,Safari,15.0,OS X,10_15_7,ebc9e4f92b8ec2c3b299c881282ee4df
6,1,"""","""","""","""","""",image-keyboard-response,18,28152,0.0-3.0-2.0-1.4,"""",501,img/flower_right.png,j,"""",practice,f,0,"""",2021-10-21 04:47:51,24.4.120.49,"Mozilla/5.0 (Macintosh; Intel Mac OS X 10_15_7) AppleWebKit/605.1.15 (KHTML, like Gecko) Version/15.0 Safari/605.1.15",Macintosh,Safari,15.0,OS X,10_15_7,ebc9e4f92b8ec2c3b299c881282ee4df
6,1,"""","""","""","""","""",html-keyboard-response,19,29153,0.0-3.0-2.0-2.4,"""",null,INCORRECT!,null,"""","""","""","""",feedback,2021-10-21 04:47:51,24.4.120.49,"Mozilla/5.0 (Macintosh; Intel Mac OS X 10_15_7) AppleWebKit/605.1.15 (KHTML, like Gecko) Version/15.0 Safari/605.1.15",Macintosh,Safari,15.0,OS X,10_15_7,ebc9e4f92b8ec2c3b299c881282ee4df
6,1,"""","""","""","""","""",image-keyboard-response,20,30155,0.0-3.0-2.0-0.5,"""",null,img/fixation.png,null,"""",fixation,"""","""","""",2021-10-21 04:47:51,24.4.120.49,"Mozilla/5.0 (Macintosh; Intel Mac OS X 10_15_7) AppleWebKit/605.1.15 (KHTML, like Gecko) Version/15.0 Safari/605.1.15",Macintosh,Safari,15.0,OS X,10_15_7,ebc9e4f92b8ec2c3b299c881282ee4df
6,1,"""","""","""","""","""",image-keyboard-response,21,30583,0.0-3.0-2.0-1.5,"""",427,img/heart_left.png,f,"""",practice,f,1,"""",2021-10-21 04:47:51,24.4.120.49,"Mozilla/5.0 (Macintosh; Intel Mac OS X 10_15_7) AppleWebKit/605.1.15 (KHTML, like Gecko) Version/15.0 Safari/605.1.15",Macintosh,Safari,15.0,OS X,10_15_7,ebc9e4f92b8ec2c3b299c881282ee4df
6,1,"""","""","""","""","""",html-keyboard-response,22,31584,0.0-3.0-2.0-2.5,"""",null,CORRECT!,null,"""","""","""","""",feedback,2021-10-21 04:47:51,24.4.120.49,"Mozilla/5.0 (Macintosh; Intel Mac OS X 10_15_7) AppleWebKit/605.1.15 (KHTML, like Gecko) Version/15.0 Safari/605.1.15",Macintosh,Safari,15.0,OS X,10_15_7,ebc9e4f92b8ec2c3b299c881282ee4df
6,1,"""","""","""","""","""",image-keyboard-response,23,32337,0.0-3.0-2.0-0.6,"""",null,img/fixation.png,null,"""",fixation,"""","""","""",2021-10-21 04:47:51,24.4.120.49,"Mozilla/5.0 (Macintosh; Intel Mac OS X 10_15_7) AppleWebKit/605.1.15 (KHTML, like Gecko) Version/15.0 Safari/605.1.15",Macintosh,Safari,15.0,OS X,10_15_7,ebc9e4f92b8ec2c3b299c881282ee4df
6,1,"""","""","""","""","""",image-keyboard-response,24,32942,0.0-3.0-2.0-1.6,"""",603,img/flower_left.png,f,"""",practice,j,0,"""",2021-10-21 04:47:51,24.4.120.49,"Mozilla/5.0 (Macintosh; Intel Mac OS X 10_15_7) AppleWebKit/605.1.15 (KHTML, like Gecko) Version/15.0 Safari/605.1.15",Macintosh,Safari,15.0,OS X,10_15_7,ebc9e4f92b8ec2c3b299c881282ee4df
6,1,"""","""","""","""","""",html-keyboard-response,25,33944,0.0-3.0-2.0-2.6,"""",null,INCORRECT!,null,"""","""","""","""",feedback,2021-10-21 04:47:51,24.4.120.49,"Mozilla/5.0 (Macintosh; Intel Mac OS X 10_15_7) AppleWebKit/605.1.15 (KHTML, like Gecko) Version/15.0 Safari/605.1.15",Macintosh,Safari,15.0,OS X,10_15_7,ebc9e4f92b8ec2c3b299c881282ee4df
6,1,"""","""","""","""","""",image-keyboard-response,26,35696,0.0-3.0-2.0-0.7,"""",null,img/fixation.png,null,"""",fixation,"""","""","""",2021-10-21 04:47:51,24.4.120.49,"Mozilla/5.0 (Macintosh; Intel Mac OS X 10_15_7) AppleWebKit/605.1.15 (KHTML, like Gecko) Version/15.0 Safari/605.1.15",Macintosh,Safari,15.0,OS X,10_15_7,ebc9e4f92b8ec2c3b299c881282ee4df
6,1,"""","""","""","""","""",image-keyboard-response,27,36318,0.0-3.0-2.0-1.7,"""",608,img/flower_left.png,j,"""",practice,j,1,"""",2021-10-21 04:47:51,24.4.120.49,"Mozilla/5.0 (Macintosh; Intel Mac OS X 10_15_7) AppleWebKit/605.1.15 (KHTML, like Gecko) Version/15.0 Safari/605.1.15",Macintosh,Safari,15.0,OS X,10_15_7,ebc9e4f92b8ec2c3b299c881282ee4df
6,1,"""","""","""","""","""",html-keyboard-response,28,37319,0.0-3.0-2.0-2.7,"""",null,CORRECT!,null,"""","""","""","""",feedback,2021-10-21 04:47:51,24.4.120.49,"Mozilla/5.0 (Macintosh; Intel Mac OS X 10_15_7) AppleWebKit/605.1.15 (KHTML, like Gecko) Version/15.0 Safari/605.1.15",Macintosh,Safari,15.0,OS X,10_15_7,ebc9e4f92b8ec2c3b299c881282ee4df
6,1,"""","""","""","""","""",image-keyboard-response,29,38824,0.0-3.0-2.0-0.8,"""",null,img/fixation.png,null,"""",fixation,"""","""","""",2021-10-21 04:47:51,24.4.120.49,"Mozilla/5.0 (Macintosh; Intel Mac OS X 10_15_7) AppleWebKit/605.1.15 (KHTML, like Gecko) Version/15.0 Safari/605.1.15",Macintosh,Safari,15.0,OS X,10_15_7,ebc9e4f92b8ec2c3b299c881282ee4df
6,1,"""","""","""","""","""",image-keyboard-response,30,39393,0.0-3.0-2.0-1.8,"""",555,img/heart_right.png,f,"""",practice,j,0,"""",2021-10-21 04:47:51,24.4.120.49,"Mozilla/5.0 (Macintosh; Intel Mac OS X 10_15_7) AppleWebKit/605.1.15 (KHTML, like Gecko) Version/15.0 Safari/605.1.15",Macintosh,Safari,15.0,OS X,10_15_7,ebc9e4f92b8ec2c3b299c881282ee4df
6,1,"""","""","""","""","""",html-keyboard-response,31,40394,0.0-3.0-2.0-2.8,"""",null,INCORRECT!,null,"""","""","""","""",feedback,2021-10-21 04:47:51,24.4.120.49,"Mozilla/5.0 (Macintosh; Intel Mac OS X 10_15_7) AppleWebKit/605.1.15 (KHTML, like Gecko) Version/15.0 Safari/605.1.15",Macintosh,Safari,15.0,OS X,10_15_7,ebc9e4f92b8ec2c3b299c881282ee4df
6,1,"""","""","""","""","""",image-keyboard-response,32,41146,0.0-3.0-2.0-0.9,"""",null,img/fixation.png,null,"""",fixation,"""","""","""",2021-10-21 04:47:51,24.4.120.49,"Mozilla/5.0 (Macintosh; Intel Mac OS X 10_15_7) AppleWebKit/605.1.15 (KHTML, like Gecko) Version/15.0 Safari/605.1.15",Macintosh,Safari,15.0,OS X,10_15_7,ebc9e4f92b8ec2c3b299c881282ee4df
6,1,"""","""","""","""","""",image-keyboard-response,33,41750,0.0-3.0-2.0-1.9,"""",603.0000000000073,img/flower_right.png,f,"""",practice,f,1,"""",2021-10-21 04:47:51,24.4.120.49,"Mozilla/5.0 (Macintosh; Intel Mac OS X 10_15_7) AppleWebKit/605.1.15 (KHTML, like Gecko) Version/15.0 Safari/605.1.15",Macintosh,Safari,15.0,OS X,10_15_7,ebc9e4f92b8ec2c3b299c881282ee4df
6,1,"""","""","""","""","""",html-keyboard-response,34,42751,0.0-3.0-2.0-2.9,"""",null,CORRECT!,null,"""","""","""","""",feedback,2021-10-21 04:47:51,24.4.120.49,"Mozilla/5.0 (Macintosh; Intel Mac OS X 10_15_7) AppleWebKit/605.1.15 (KHTML, like Gecko) Version/15.0 Safari/605.1.15",Macintosh,Safari,15.0,OS X,10_15_7,ebc9e4f92b8ec2c3b299c881282ee4df
28,1,true,"""","""","""","""",fullscreen,0,5835,0.0-0.0,"""","""","""","""","""","""","""","""","""",2021-11-15 03:34:31,24.4.120.49,"Mozilla/5.0 (Macintosh; Intel Mac OS X 10_15_7) AppleWebKit/537.36 (KHTML, like Gecko) Chrome/95.0.4638.69 Safari/537.36",Macintosh,Chrome,95.0.4638.69,OS X,10_15_7,fc80173b241c556346404f5d33b3977b,"""","""",EASY,"""",""""
28,1,true,false,[],[],[],preload,1,7390,0.0-1.0,"""","""","""","""","""","""","""","""","""",2021-11-15 03:34:31,24.4.120.49,"Mozilla/5.0 (Macintosh; Intel Mac OS X 10_15_7) AppleWebKit/537.36 (KHTML, like Gecko) Chrome/95.0.4638.69 Safari/537.36",Macintosh,Chrome,95.0.4638.69,OS X,10_15_7,fc80173b241c556346404f5d33b3977b,"""","""",EASY,"""",""""
28,1,"""","""","""","""","""",html-button-response,2,9711,0.0-2.0,"""",2319.8000000715256,<p>Welcome! Thank you so much for participating in this study. Press START to begin.</p><br>,0,"""","""","""","""","""",2021-11-15 03:34:31,24.4.120.49,"Mozilla/5.0 (Macintosh; Intel Mac OS X 10_15_7) AppleWebKit/537.36 (KHTML, like Gecko) Chrome/95.0.4638.69 Safari/537.36",Macintosh,Chrome,95.0.4638.69,OS X,10_15_7,fc80173b241c556346404f5d33b3977b,"""","""",EASY,"""",""""
28,1,"""","""","""","""","""",html-button-response,3,21371,0.0-3.0,"""",11658.800000071526,"<p>First, you will review a series of hypothetical scenarios each related to finances</p><br><p>Please think about each scenario carefully for approximately <strong>one minute</strong>.</p><br><p>Please reflect and process the scenario as if it were actually happening. Questions will be there to help guide your thinking.</p><p>When you are ready to begin, please press REVIEW to begin the study.",0,"""","""","""","""","""",2021-11-15 03:34:31,24.4.120.49,"Mozilla/5.0 (Macintosh; Intel Mac OS X 10_15_7) AppleWebKit/537.36 (KHTML, like Gecko) Chrome/95.0.4638.69 Safari/537.36",Macintosh,Chrome,95.0.4638.69,OS X,10_15_7,fc80173b241c556346404f5d33b3977b,"""","""",EASY,"""",""""
28,1,"""","""","""","""","""",image-keyboard-response,4,23641,0.0-4.0-0.0,"""",null,img/fixation.png,null,"""",fixation,"""","""","""",2021-11-15 03:34:31,24.4.120.49,"Mozilla/5.0 (Macintosh; Intel Mac OS X 10_15_7) AppleWebKit/537.36 (KHTML, like Gecko) Chrome/95.0.4638.69 Safari/537.36",Macintosh,Chrome,95.0.4638.69,OS X,10_15_7,fc80173b241c556346404f5d33b3977b,"""","""",EASY,"""",""""
28,1,"""","""","""","""","""",image-keyboard-response,5,53647,0.0-4.0-1.0,"""",null,scarcity/easy/scenario3.png,null,"""","""","""","""","""",2021-11-15 03:34:31,24.4.120.49,"Mozilla/5.0 (Macintosh; Intel Mac OS X 10_15_7) AppleWebKit/537.36 (KHTML, like Gecko) Chrome/95.0.4638.69 Safari/537.36",Macintosh,Chrome,95.0.4638.69,OS X,10_15_7,fc80173b241c556346404f5d33b3977b,"""","""",EASY,"""",""""
28,1,"""","""","""","""","""",survey-multi-choice,6,58905,0.0-4.0-2.0,"""",5254,"""","{""Q0"":""Yes"",""Q1"":""Yes""}","""","""","""","""","""",2021-11-15 03:34:31,24.4.120.49,"Mozilla/5.0 (Macintosh; Intel Mac OS X 10_15_7) AppleWebKit/537.36 (KHTML, like Gecko) Chrome/95.0.4638.69 Safari/537.36",Macintosh,Chrome,95.0.4638.69,OS X,10_15_7,fc80173b241c556346404f5d33b3977b,"""","""",EASY,"[0,1]",""""
28,1,"""","""","""","""","""",image-keyboard-response,7,60909,0.0-4.0-0.1,"""",null,img/fixation.png,null,"""",fixation,"""","""","""",2021-11-15 03:34:31,24.4.120.49,"Mozilla/5.0 (Macintosh; Intel Mac OS X 10_15_7) AppleWebKit/537.36 (KHTML, like Gecko) Chrome/95.0.4638.69 Safari/537.36",Macintosh,Chrome,95.0.4638.69,OS X,10_15_7,fc80173b241c556346404f5d33b3977b,"""","""",EASY,"""",""""
28,1,"""","""","""","""","""",image-keyboard-response,8,90915,0.0-4.0-1.1,"""",null,scarcity/easy/scenario1.png,null,"""","""","""","""","""",2021-11-15 03:34:31,24.4.120.49,"Mozilla/5.0 (Macintosh; Intel Mac OS X 10_15_7) AppleWebKit/537.36 (KHTML, like Gecko) Chrome/95.0.4638.69 Safari/537.36",Macintosh,Chrome,95.0.4638.69,OS X,10_15_7,fc80173b241c556346404f5d33b3977b,"""","""",EASY,"""",""""
28,1,"""","""","""","""","""",survey-multi-choice,9,96686,0.0-4.0-2.1,"""",5769.600000023842,"""","{""Q0"":""Yes"",""Q1"":""Yes""}","""","""","""","""","""",2021-11-15 03:34:31,24.4.120.49,"Mozilla/5.0 (Macintosh; Intel Mac OS X 10_15_7) AppleWebKit/537.36 (KHTML, like Gecko) Chrome/95.0.4638.69 Safari/537.36",Macintosh,Chrome,95.0.4638.69,OS X,10_15_7,fc80173b241c556346404f5d33b3977b,"""","""",EASY,"[0,1]",""""
28,1,"""","""","""","""","""",image-keyboard-response,10,97690,0.0-4.0-0.2,"""",null,img/fixation.png,null,"""",fixation,"""","""","""",2021-11-15 03:34:31,24.4.120.49,"Mozilla/5.0 (Macintosh; Intel Mac OS X 10_15_7) AppleWebKit/537.36 (KHTML, like Gecko) Chrome/95.0.4638.69 Safari/537.36",Macintosh,Chrome,95.0.4638.69,OS X,10_15_7,fc80173b241c556346404f5d33b3977b,"""","""",EASY,"""",""""
28,1,"""","""","""","""","""",image-keyboard-response,11,127695,0.0-4.0-1.2,"""",null,scarcity/easy/scenario4.png,null,"""","""","""","""","""",2021-11-15 03:34:31,24.4.120.49,"Mozilla/5.0 (Macintosh; Intel Mac OS X 10_15_7) AppleWebKit/537.36 (KHTML, like Gecko) Chrome/95.0.4638.69 Safari/537.36",Macintosh,Chrome,95.0.4638.69,OS X,10_15_7,fc80173b241c556346404f5d33b3977b,"""","""",EASY,"""",""""
28,1,"""","""","""","""","""",survey-multi-choice,12,133246,0.0-4.0-2.2,"""",5548.299999952316,"""","{""Q0"":""Yes"",""Q1"":""Yes""}","""","""","""","""","""",2021-11-15 03:34:31,24.4.120.49,"Mozilla/5.0 (Macintosh; Intel Mac OS X 10_15_7) AppleWebKit/537.36 (KHTML, like Gecko) Chrome/95.0.4638.69 Safari/537.36",Macintosh,Chrome,95.0.4638.69,OS X,10_15_7,fc80173b241c556346404f5d33b3977b,"""","""",EASY,"[0,1]",""""
28,1,"""","""","""","""","""",image-keyboard-response,13,133748,0.0-4.0-0.3,"""",null,img/fixation.png,null,"""",fixation,"""","""","""",2021-11-15 03:34:31,24.4.120.49,"Mozilla/5.0 (Macintosh; Intel Mac OS X 10_15_7) AppleWebKit/537.36 (KHTML, like Gecko) Chrome/95.0.4638.69 Safari/537.36",Macintosh,Chrome,95.0.4638.69,OS X,10_15_7,fc80173b241c556346404f5d33b3977b,"""","""",EASY,"""",""""
28,1,"""","""","""","""","""",image-keyboard-response,14,163755,0.0-4.0-1.3,"""",null,scarcity/easy/scenario2.png,null,"""","""","""","""","""",2021-11-15 03:34:31,24.4.120.49,"Mozilla/5.0 (Macintosh; Intel Mac OS X 10_15_7) AppleWebKit/537.36 (KHTML, like Gecko) Chrome/95.0.4638.69 Safari/537.36",Macintosh,Chrome,95.0.4638.69,OS X,10_15_7,fc80173b241c556346404f5d33b3977b,"""","""",EASY,"""",""""
28,1,"""","""","""","""","""",survey-multi-choice,15,168764,0.0-4.0-2.3,"""",5007.899999976158,"""","{""Q0"":""Yes"",""Q1"":""Yes""}","""","""","""","""","""",2021-11-15 03:34:31,24.4.120.49,"Mozilla/5.0 (Macintosh; Intel Mac OS X 10_15_7) AppleWebKit/537.36 (KHTML, like Gecko) Chrome/95.0.4638.69 Safari/537.36",Macintosh,Chrome,95.0.4638.69,OS X,10_15_7,fc80173b241c556346404f5d33b3977b,"""","""",EASY,"[0,1]",""""
28,1,"""","""","""","""","""",html-button-response,16,172232,0.0-5.0,"""",3463.7000000476837,"<p>You have finished reviewing each scenario!</p><p>We will now begin the cognitive experiment.<p><p>When you are ready to begin the cognitive game, please press START.</p>",0,"""","""","""","""","""",2021-11-15 03:34:31,24.4.120.49,"Mozilla/5.0 (Macintosh; Intel Mac OS X 10_15_7) AppleWebKit/537.36 (KHTML, like Gecko) Chrome/95.0.4638.69 Safari/537.36",Macintosh,Chrome,95.0.4638.69,OS X,10_15_7,fc80173b241c556346404f5d33b3977b,"""","""",EASY,"""",""""
28,1,"""","""","""","""","""",instructions,17,206390,0.0-6.0-0.0,"""",32406.100000023842,"""","""","[{""page_index"":0,""viewing_time"":8596.399999976158},{""page_index"":1,""viewing_time"":5138.700000047684},{""page_index"":2,""viewing_time"":3214.399999976158},{""page_index"":3,""viewing_time"":2404.399999976158},{""page_index"":4,""viewing_time"":3889.399999976158},{""page_index"":5,""viewing_time"":6837.5},{""page_index"":6,""viewing_time"":2324.5}]","""","""","""","""",2021-11-15 03:34:31,24.4.120.49,"Mozilla/5.0 (Macintosh; Intel Mac OS X 10_15_7) AppleWebKit/537.36 (KHTML, like Gecko) Chrome/95.0.4638.69 Safari/537.36",Macintosh,Chrome,95.0.4638.69,OS X,10_15_7,fc80173b241c556346404f5d33b3977b,"""","""",EASY,"""",""""
28,1,"""","""","""","""","""",image-button-response,18,213085,0.0-6.0-1.0,"""",6692.299999952316,begin_practice.png,0,"""","""","""","""","""",2021-11-15 03:34:31,24.4.120.49,"Mozilla/5.0 (Macintosh; Intel Mac OS X 10_15_7) AppleWebKit/537.36 (KHTML, like Gecko) Chrome/95.0.4638.69 Safari/537.36",Macintosh,Chrome,95.0.4638.69,OS X,10_15_7,fc80173b241c556346404f5d33b3977b,"""","""",EASY,"""",""""
28,1,"""","""","""","""","""",image-keyboard-response,19,216841,0.0-6.0-2.0-0.0,"""",null,img/fixation.png,null,"""",fixation,"""","""","""",2021-11-15 03:34:31,24.4.120.49,"Mozilla/5.0 (Macintosh; Intel Mac OS X 10_15_7) AppleWebKit/537.36 (KHTML, like Gecko) Chrome/95.0.4638.69 Safari/537.36",Macintosh,Chrome,95.0.4638.69,OS X,10_15_7,fc80173b241c556346404f5d33b3977b,"""","""",EASY,"""",""""
28,1,"""","""","""","""","""",image-keyboard-response,20,217688,0.0-6.0-2.0-1.0,"""",844.1000000238419,img/heart_right.png,j,"""",practice,j,1,"""",2021-11-15 03:34:31,24.4.120.49,"Mozilla/5.0 (Macintosh; Intel Mac OS X 10_15_7) AppleWebKit/537.36 (KHTML, like Gecko) Chrome/95.0.4638.69 Safari/537.36",Macintosh,Chrome,95.0.4638.69,OS X,10_15_7,fc80173b241c556346404f5d33b3977b,"""","""",EASY,"""",""""
28,1,"""","""","""","""","""",html-keyboard-response,21,218693,0.0-6.0-2.0-2.0,"""",null,CORRECT!,null,"""","""","""","""",feedback,2021-11-15 03:34:31,24.4.120.49,"Mozilla/5.0 (Macintosh; Intel Mac OS X 10_15_7) AppleWebKit/537.36 (KHTML, like Gecko) Chrome/95.0.4638.69 Safari/537.36",Macintosh,Chrome,95.0.4638.69,OS X,10_15_7,fc80173b241c556346404f5d33b3977b,"""","""",EASY,"""",""""
28,1,"""","""","""","""","""",image-keyboard-response,22,220446,0.0-6.0-2.0-0.1,"""",null,img/fixation.png,null,"""",fixation,"""","""","""",2021-11-15 03:34:31,24.4.120.49,"Mozilla/5.0 (Macintosh; Intel Mac OS X 10_15_7) AppleWebKit/537.36 (KHTML, like Gecko) Chrome/95.0.4638.69 Safari/537.36",Macintosh,Chrome,95.0.4638.69,OS X,10_15_7,fc80173b241c556346404f5d33b3977b,"""","""",EASY,"""",""""
28,1,"""","""","""","""","""",image-keyboard-response,23,221222,0.0-6.0-2.0-1.1,"""",774.2000000476837,img/flower_left.png,j,"""",practice,j,1,"""",2021-11-15 03:34:31,24.4.120.49,"Mozilla/5.0 (Macintosh; Intel Mac OS X 10_15_7) AppleWebKit/537.36 (KHTML, like Gecko) Chrome/95.0.4638.69 Safari/537.36",Macintosh,Chrome,95.0.4638.69,OS X,10_15_7,fc80173b241c556346404f5d33b3977b,"""","""",EASY,"""",""""
28,1,"""","""","""","""","""",html-keyboard-response,24,222223,0.0-6.0-2.0-2.1,"""",null,CORRECT!,null,"""","""","""","""",feedback,2021-11-15 03:34:31,24.4.120.49,"Mozilla/5.0 (Macintosh; Intel Mac OS X 10_15_7) AppleWebKit/537.36 (KHTML, like Gecko) Chrome/95.0.4638.69 Safari/537.36",Macintosh,Chrome,95.0.4638.69,OS X,10_15_7,fc80173b241c556346404f5d33b3977b,"""","""",EASY,"""",""""
28,1,"""","""","""","""","""",image-keyboard-response,25,222977,0.0-6.0-2.0-0.2,"""",null,img/fixation.png,null,"""",fixation,"""","""","""",2021-11-15 03:34:31,24.4.120.49,"Mozilla/5.0 (Macintosh; Intel Mac OS X 10_15_7) AppleWebKit/537.36 (KHTML, like Gecko) Chrome/95.0.4638.69 Safari/537.36",Macintosh,Chrome,95.0.4638.69,OS X,10_15_7,fc80173b241c556346404f5d33b3977b,"""","""",EASY,"""",""""
28,1,"""","""","""","""","""",image-keyboard-response,26,223782,0.0-6.0-2.0-1.2,"""",803,img/flower_right.png,f,"""",practice,f,1,"""",2021-11-15 03:34:31,24.4.120.49,"Mozilla/5.0 (Macintosh; Intel Mac OS X 10_15_7) AppleWebKit/537.36 (KHTML, like Gecko) Chrome/95.0.4638.69 Safari/537.36",Macintosh,Chrome,95.0.4638.69,OS X,10_15_7,fc80173b241c556346404f5d33b3977b,"""","""",EASY,"""",""""
28,1,"""","""","""","""","""",html-keyboard-response,27,224782,0.0-6.0-2.0-2.2,"""",null,CORRECT!,null,"""","""","""","""",feedback,2021-11-15 03:34:31,24.4.120.49,"Mozilla/5.0 (Macintosh; Intel Mac OS X 10_15_7) AppleWebKit/537.36 (KHTML, like Gecko) Chrome/95.0.4638.69 Safari/537.36",Macintosh,Chrome,95.0.4638.69,OS X,10_15_7,fc80173b241c556346404f5d33b3977b,"""","""",EASY,"""",""""
28,1,"""","""","""","""","""",image-keyboard-response,28,225787,0.0-6.0-2.0-0.3,"""",null,img/fixation.png,null,"""",fixation,"""","""","""",2021-11-15 03:34:31,24.4.120.49,"Mozilla/5.0 (Macintosh; Intel Mac OS X 10_15_7) AppleWebKit/537.36 (KHTML, like Gecko) Chrome/95.0.4638.69 Safari/537.36",Macintosh,Chrome,95.0.4638.69,OS X,10_15_7,fc80173b241c556346404f5d33b3977b,"""","""",EASY,"""",""""
28,1,"""","""","""","""","""",image-keyboard-response,29,226438,0.0-6.0-2.0-1.3,"""",650,img/heart_right.png,j,"""",practice,j,1,"""",2021-11-15 03:34:31,24.4.120.49,"Mozilla/5.0 (Macintosh; Intel Mac OS X 10_15_7) AppleWebKit/537.36 (KHTML, like Gecko) Chrome/95.0.4638.69 Safari/537.36",Macintosh,Chrome,95.0.4638.69,OS X,10_15_7,fc80173b241c556346404f5d33b3977b,"""","""",EASY,"""",""""
28,1,"""","""","""","""","""",html-keyboard-response,30,227441,0.0-6.0-2.0-2.3,"""",null,CORRECT!,null,"""","""","""","""",feedback,2021-11-15 03:34:31,24.4.120.49,"Mozilla/5.0 (Macintosh; Intel Mac OS X 10_15_7) AppleWebKit/537.36 (KHTML, like Gecko) Chrome/95.0.4638.69 Safari/537.36",Macintosh,Chrome,95.0.4638.69,OS X,10_15_7,fc80173b241c556346404f5d33b3977b,"""","""",EASY,"""",""""
28,1,"""","""","""","""","""",image-keyboard-response,31,228445,0.0-6.0-2.0-0.4,"""",null,img/fixation.png,null,"""",fixation,"""","""","""",2021-11-15 03:34:31,24.4.120.49,"Mozilla/5.0 (Macintosh; Intel Mac OS X 10_15_7) AppleWebKit/537.36 (KHTML, like Gecko) Chrome/95.0.4638.69 Safari/537.36",Macintosh,Chrome,95.0.4638.69,OS X,10_15_7,fc80173b241c556346404f5d33b3977b,"""","""",EASY,"""",""""
28,1,"""","""","""","""","""",image-keyboard-response,32,229030,0.0-6.0-2.0-1.4,"""",581.3000000715256,img/flower_right.png,f,"""",practice,f,1,"""",2021-11-15 03:34:31,24.4.120.49,"Mozilla/5.0 (Macintosh; Intel Mac OS X 10_15_7) AppleWebKit/537.36 (KHTML, like Gecko) Chrome/95.0.4638.69 Safari/537.36",Macintosh,Chrome,95.0.4638.69,OS X,10_15_7,fc80173b241c556346404f5d33b3977b,"""","""",EASY,"""",""""
28,1,"""","""","""","""","""",html-keyboard-response,33,230035,0.0-6.0-2.0-2.4,"""",null,CORRECT!,null,"""","""","""","""",feedback,2021-11-15 03:34:31,24.4.120.49,"Mozilla/5.0 (Macintosh; Intel Mac OS X 10_15_7) AppleWebKit/537.36 (KHTML, like Gecko) Chrome/95.0.4638.69 Safari/537.36",Macintosh,Chrome,95.0.4638.69,OS X,10_15_7,fc80173b241c556346404f5d33b3977b,"""","""",EASY,"""",""""
28,1,"""","""","""","""","""",image-keyboard-response,34,230791,0.0-6.0-2.0-0.5,"""",null,img/fixation.png,null,"""",fixation,"""","""","""",2021-11-15 03:34:31,24.4.120.49,"Mozilla/5.0 (Macintosh; Intel Mac OS X 10_15_7) AppleWebKit/537.36 (KHTML, like Gecko) Chrome/95.0.4638.69 Safari/537.36",Macintosh,Chrome,95.0.4638.69,OS X,10_15_7,fc80173b241c556346404f5d33b3977b,"""","""",EASY,"""",""""
28,1,"""","""","""","""","""",image-keyboard-response,35,231519,0.0-6.0-2.0-1.5,"""",727.4000000953674,img/flower_left.png,j,"""",practice,j,1,"""",2021-11-15 03:34:31,24.4.120.49,"Mozilla/5.0 (Macintosh; Intel Mac OS X 10_15_7) AppleWebKit/537.36 (KHTML, like Gecko) Chrome/95.0.4638.69 Safari/537.36",Macintosh,Chrome,95.0.4638.69,OS X,10_15_7,fc80173b241c556346404f5d33b3977b,"""","""",EASY,"""",""""
28,1,"""","""","""","""","""",html-keyboard-response,36,232520,0.0-6.0-2.0-2.5,"""",null,CORRECT!,null,"""","""","""","""",feedback,2021-11-15 03:34:31,24.4.120.49,"Mozilla/5.0 (Macintosh; Intel Mac OS X 10_15_7) AppleWebKit/537.36 (KHTML, like Gecko) Chrome/95.0.4638.69 Safari/537.36",Macintosh,Chrome,95.0.4638.69,OS X,10_15_7,fc80173b241c556346404f5d33b3977b,"""","""",EASY,"""",""""
28,1,"""","""","""","""","""",image-keyboard-response,37,233774,0.0-6.0-2.0-0.6,"""",null,img/fixation.png,null,"""",fixation,"""","""","""",2021-11-15 03:34:31,24.4.120.49,"Mozilla/5.0 (Macintosh; Intel Mac OS X 10_15_7) AppleWebKit/537.36 (KHTML, like Gecko) Chrome/95.0.4638.69 Safari/537.36",Macintosh,Chrome,95.0.4638.69,OS X,10_15_7,fc80173b241c556346404f5d33b3977b,"""","""",EASY,"""",""""
28,1,"""","""","""","""","""",image-keyboard-response,38,234595,0.0-6.0-2.0-1.6,"""",820.5,img/flower_left.png,j,"""",practice,j,1,"""",2021-11-15 03:34:31,24.4.120.49,"Mozilla/5.0 (Macintosh; Intel Mac OS X 10_15_7) AppleWebKit/537.36 (KHTML, like Gecko) Chrome/95.0.4638.69 Safari/537.36",Macintosh,Chrome,95.0.4638.69,OS X,10_15_7,fc80173b241c556346404f5d33b3977b,"""","""",EASY,"""",""""
28,1,"""","""","""","""","""",html-keyboard-response,39,235600,0.0-6.0-2.0-2.6,"""",null,CORRECT!,null,"""","""","""","""",feedback,2021-11-15 03:34:31,24.4.120.49,"Mozilla/5.0 (Macintosh; Intel Mac OS X 10_15_7) AppleWebKit/537.36 (KHTML, like Gecko) Chrome/95.0.4638.69 Safari/537.36",Macintosh,Chrome,95.0.4638.69,OS X,10_15_7,fc80173b241c556346404f5d33b3977b,"""","""",EASY,"""",""""
28,1,"""","""","""","""","""",image-keyboard-response,40,236605,0.0-6.0-2.0-0.7,"""",null,img/fixation.png,null,"""",fixation,"""","""","""",2021-11-15 03:34:31,24.4.120.49,"Mozilla/5.0 (Macintosh; Intel Mac OS X 10_15_7) AppleWebKit/537.36 (KHTML, like Gecko) Chrome/95.0.4638.69 Safari/537.36",Macintosh,Chrome,95.0.4638.69,OS X,10_15_7,fc80173b241c556346404f5d33b3977b,"""","""",EASY,"""",""""
28,1,"""","""","""","""","""",image-keyboard-response,41,237194,0.0-6.0-2.0-1.7,"""",586.6999999284744,img/flower_left.png,j,"""",practice,j,1,"""",2021-11-15 03:34:31,24.4.120.49,"Mozilla/5.0 (Macintosh; Intel Mac OS X 10_15_7) AppleWebKit/537.36 (KHTML, like Gecko) Chrome/95.0.4638.69 Safari/537.36",Macintosh,Chrome,95.0.4638.69,OS X,10_15_7,fc80173b241c556346404f5d33b3977b,"""","""",EASY,"""",""""
28,1,"""","""","""","""","""",html-keyboard-response,42,238197,0.0-6.0-2.0-2.7,"""",null,CORRECT!,null,"""","""","""","""",feedback,2021-11-15 03:34:31,24.4.120.49,"Mozilla/5.0 (Macintosh; Intel Mac OS X 10_15_7) AppleWebKit/537.36 (KHTML, like Gecko) Chrome/95.0.4638.69 Safari/537.36",Macintosh,Chrome,95.0.4638.69,OS X,10_15_7,fc80173b241c556346404f5d33b3977b,"""","""",EASY,"""",""""
28,1,"""","""","""","""","""",image-keyboard-response,43,238702,0.0-6.0-2.0-0.8,"""",null,img/fixation.png,null,"""",fixation,"""","""","""",2021-11-15 03:34:31,24.4.120.49,"Mozilla/5.0 (Macintosh; Intel Mac OS X 10_15_7) AppleWebKit/537.36 (KHTML, like Gecko) Chrome/95.0.4638.69 Safari/537.36",Macintosh,Chrome,95.0.4638.69,OS X,10_15_7,fc80173b241c556346404f5d33b3977b,"""","""",EASY,"""",""""
28,1,"""","""","""","""","""",image-keyboard-response,44,239501,0.0-6.0-2.0-1.8,"""",796.6000000238419,img/heart_left.png,f,"""",practice,f,1,"""",2021-11-15 03:34:31,24.4.120.49,"Mozilla/5.0 (Macintosh; Intel Mac OS X 10_15_7) AppleWebKit/537.36 (KHTML, like Gecko) Chrome/95.0.4638.69 Safari/537.36",Macintosh,Chrome,95.0.4638.69,OS X,10_15_7,fc80173b241c556346404f5d33b3977b,"""","""",EASY,"""",""""
28,1,"""","""","""","""","""",html-keyboard-response,45,240502,0.0-6.0-2.0-2.8,"""",null,CORRECT!,null,"""","""","""","""",feedback,2021-11-15 03:34:31,24.4.120.49,"Mozilla/5.0 (Macintosh; Intel Mac OS X 10_15_7) AppleWebKit/537.36 (KHTML, like Gecko) Chrome/95.0.4638.69 Safari/537.36",Macintosh,Chrome,95.0.4638.69,OS X,10_15_7,fc80173b241c556346404f5d33b3977b,"""","""",EASY,"""",""""
28,1,"""","""","""","""","""",image-keyboard-response,46,242259,0.0-6.0-2.0-0.9,"""",null,img/fixation.png,null,"""",fixation,"""","""","""",2021-11-15 03:34:31,24.4.120.49,"Mozilla/5.0 (Macintosh; Intel Mac OS X 10_15_7) AppleWebKit/537.36 (KHTML, like Gecko) Chrome/95.0.4638.69 Safari/537.36",Macintosh,Chrome,95.0.4638.69,OS X,10_15_7,fc80173b241c556346404f5d33b3977b,"""","""",EASY,"""",""""
28,1,"""","""","""","""","""",image-keyboard-response,47,242907,0.0-6.0-2.0-1.9,"""",646.2999999523163,img/flower_left.png,j,"""",practice,j,1,"""",2021-11-15 03:34:31,24.4.120.49,"Mozilla/5.0 (Macintosh; Intel Mac OS X 10_15_7) AppleWebKit/537.36 (KHTML, like Gecko) Chrome/95.0.4638.69 Safari/537.36",Macintosh,Chrome,95.0.4638.69,OS X,10_15_7,fc80173b241c556346404f5d33b3977b,"""","""",EASY,"""",""""
28,1,"""","""","""","""","""",html-keyboard-response,48,243910,0.0-6.0-2.0-2.9,"""",null,CORRECT!,null,"""","""","""","""",feedback,2021-11-15 03:34:31,24.4.120.49,"Mozilla/5.0 (Macintosh; Intel Mac OS X 10_15_7) AppleWebKit/537.36 (KHTML, like Gecko) Chrome/95.0.4638.69 Safari/537.36",Macintosh,Chrome,95.0.4638.69,OS X,10_15_7,fc80173b241c556346404f5d33b3977b,"""","""",EASY,"""",""""
28,1,"""","""","""","""","""",image-button-response,49,246134,0.0-7.0,"""",2222.5,img/begin_experiment.png,0,"""","""","""","""","""",2021-11-15 03:34:31,24.4.120.49,"Mozilla/5.0 (Macintosh; Intel Mac OS X 10_15_7) AppleWebKit/537.36 (KHTML, like Gecko) Chrome/95.0.4638.69 Safari/537.36",Macintosh,Chrome,95.0.4638.69,OS X,10_15_7,fc80173b241c556346404f5d33b3977b,"""","""",EASY,"""",""""
28,1,"""","""","""","""","""",html-button-response,50,250348,0.0-8.0,"""",2205.399999976158,Block 1,0,"""","""","""","""","""",2021-11-15 03:34:31,24.4.120.49,"Mozilla/5.0 (Macintosh; Intel Mac OS X 10_15_7) AppleWebKit/537.36 (KHTML, like Gecko) Chrome/95.0.4638.69 Safari/537.36",Macintosh,Chrome,95.0.4638.69,OS X,10_15_7,fc80173b241c556346404f5d33b3977b,"""","""",EASY,"""",""""
28,1,"""","""","""","""","""",image-keyboard-response,51,253354,0.0-9.0-0.0,"""",null,img/fixation.png,null,"""",fixation,"""","""","""",2021-11-15 03:34:31,24.4.120.49,"Mozilla/5.0 (Macintosh; Intel Mac OS X 10_15_7) AppleWebKit/537.36 (KHTML, like Gecko) Chrome/95.0.4638.69 Safari/537.36",Macintosh,Chrome,95.0.4638.69,OS X,10_15_7,fc80173b241c556346404f5d33b3977b,"""","""",EASY,"""",1
28,1,"""","""","""","""","""",image-keyboard-response,52,253976,0.0-9.0-1.0,"""",618.0999999046326,img/heart_left.png,f,"""",response,f,1,"""",2021-11-15 03:34:31,24.4.120.49,"Mozilla/5.0 (Macintosh; Intel Mac OS X 10_15_7) AppleWebKit/537.36 (KHTML, like Gecko) Chrome/95.0.4638.69 Safari/537.36",Macintosh,Chrome,95.0.4638.69,OS X,10_15_7,fc80173b241c556346404f5d33b3977b,"""","""",EASY,"""",1
28,1,"""","""","""","""","""",image-keyboard-response,53,254480,0.0-9.0-0.1,"""",null,img/fixation.png,null,"""",fixation,"""","""","""",2021-11-15 03:34:31,24.4.120.49,"Mozilla/5.0 (Macintosh; Intel Mac OS X 10_15_7) AppleWebKit/537.36 (KHTML, like Gecko) Chrome/95.0.4638.69 Safari/537.36",Macintosh,Chrome,95.0.4638.69,OS X,10_15_7,fc80173b241c556346404f5d33b3977b,"""","""",EASY,"""",1
28,1,"""","""","""","""","""",image-keyboard-response,54,255141,0.0-9.0-1.1,"""",659.8999999761581,img/flower_left.png,j,"""",response,j,1,"""",2021-11-15 03:34:31,24.4.120.49,"Mozilla/5.0 (Macintosh; Intel Mac OS X 10_15_7) AppleWebKit/537.36 (KHTML, like Gecko) Chrome/95.0.4638.69 Safari/537.36",Macintosh,Chrome,95.0.4638.69,OS X,10_15_7,fc80173b241c556346404f5d33b3977b,"""","""",EASY,"""",1
28,1,"""","""","""","""","""",image-keyboard-response,55,255409,0.0-9.0-0.2,"""",null,img/fixation.png,null,"""",fixation,"""","""","""",2021-11-15 03:34:31,24.4.120.49,"Mozilla/5.0 (Macintosh; Intel Mac OS X 10_15_7) AppleWebKit/537.36 (KHTML, like Gecko) Chrome/95.0.4638.69 Safari/537.36",Macintosh,Chrome,95.0.4638.69,OS X,10_15_7,fc80173b241c556346404f5d33b3977b,"""","""",EASY,"""",1
28,1,"""","""","""","""","""",image-keyboard-response,56,256308,0.0-9.0-1.2,"""",898,img/heart_right.png,j,"""",response,j,1,"""",2021-11-15 03:34:31,24.4.120.49,"Mozilla/5.0 (Macintosh; Intel Mac OS X 10_15_7) AppleWebKit/537.36 (KHTML, like Gecko) Chrome/95.0.4638.69 Safari/537.36",Macintosh,Chrome,95.0.4638.69,OS X,10_15_7,fc80173b241c556346404f5d33b3977b,"""","""",EASY,"""",1
28,1,"""","""","""","""","""",image-keyboard-response,57,258312,0.0-9.0-0.3,"""",null,img/fixation.png,null,"""",fixation,"""","""","""",2021-11-15 03:34:31,24.4.120.49,"Mozilla/5.0 (Macintosh; Intel Mac OS X 10_15_7) AppleWebKit/537.36 (KHTML, like Gecko) Chrome/95.0.4638.69 Safari/537.36",Macintosh,Chrome,95.0.4638.69,OS X,10_15_7,fc80173b241c556346404f5d33b3977b,"""","""",EASY,"""",1
28,1,"""","""","""","""","""",image-keyboard-response,58,258928,0.0-9.0-1.3,"""",615.1000000238419,img/heart_left.png,f,"""",response,f,1,"""",2021-11-15 03:34:31,24.4.120.49,"Mozilla/5.0 (Macintosh; Intel Mac OS X 10_15_7) AppleWebKit/537.36 (KHTML, like Gecko) Chrome/95.0.4638.69 Safari/537.36",Macintosh,Chrome,95.0.4638.69,OS X,10_15_7,fc80173b241c556346404f5d33b3977b,"""","""",EASY,"""",1
28,1,"""","""","""","""","""",image-keyboard-response,59,260181,0.0-9.0-0.4,"""",null,img/fixation.png,null,"""",fixation,"""","""","""",2021-11-15 03:34:31,24.4.120.49,"Mozilla/5.0 (Macintosh; Intel Mac OS X 10_15_7) AppleWebKit/537.36 (KHTML, like Gecko) Chrome/95.0.4638.69 Safari/537.36",Macintosh,Chrome,95.0.4638.69,OS X,10_15_7,fc80173b241c556346404f5d33b3977b,"""","""",EASY,"""",1
28,1,"""","""","""","""","""",image-keyboard-response,60,260792,0.0-9.0-1.4,"""",610.3000000715256,img/heart_right.png,j,"""",response,j,1,"""",2021-11-15 03:34:31,24.4.120.49,"Mozilla/5.0 (Macintosh; Intel Mac OS X 10_15_7) AppleWebKit/537.36 (KHTML, like Gecko) Chrome/95.0.4638.69 Safari/537.36",Macintosh,Chrome,95.0.4638.69,OS X,10_15_7,fc80173b241c556346404f5d33b3977b,"""","""",EASY,"""",1
28,1,"""","""","""","""","""",image-keyboard-response,61,261295,0.0-9.0-0.5,"""",null,img/fixation.png,null,"""",fixation,"""","""","""",2021-11-15 03:34:31,24.4.120.49,"Mozilla/5.0 (Macintosh; Intel Mac OS X 10_15_7) AppleWebKit/537.36 (KHTML, like Gecko) Chrome/95.0.4638.69 Safari/537.36",Macintosh,Chrome,95.0.4638.69,OS X,10_15_7,fc80173b241c556346404f5d33b3977b,"""","""",EASY,"""",1
28,1,"""","""","""","""","""",image-keyboard-response,62,261866,0.0-9.0-1.5,"""",570.1000000238419,img/heart_left.png,f,"""",response,f,1,"""",2021-11-15 03:34:31,24.4.120.49,"Mozilla/5.0 (Macintosh; Intel Mac OS X 10_15_7) AppleWebKit/537.36 (KHTML, like Gecko) Chrome/95.0.4638.69 Safari/537.36",Macintosh,Chrome,95.0.4638.69,OS X,10_15_7,fc80173b241c556346404f5d33b3977b,"""","""",EASY,"""",1
28,1,"""","""","""","""","""",image-keyboard-response,63,263623,0.0-9.0-0.6,"""",null,img/fixation.png,null,"""",fixation,"""","""","""",2021-11-15 03:34:31,24.4.120.49,"Mozilla/5.0 (Macintosh; Intel Mac OS X 10_15_7) AppleWebKit/537.36 (KHTML, like Gecko) Chrome/95.0.4638.69 Safari/537.36",Macintosh,Chrome,95.0.4638.69,OS X,10_15_7,fc80173b241c556346404f5d33b3977b,"""","""",EASY,"""",1
28,1,"""","""","""","""","""",image-keyboard-response,64,264108,0.0-9.0-1.6,"""",483.2000000476837,img/heart_left.png,f,"""",response,f,1,"""",2021-11-15 03:34:31,24.4.120.49,"Mozilla/5.0 (Macintosh; Intel Mac OS X 10_15_7) AppleWebKit/537.36 (KHTML, like Gecko) Chrome/95.0.4638.69 Safari/537.36",Macintosh,Chrome,95.0.4638.69,OS X,10_15_7,fc80173b241c556346404f5d33b3977b,"""","""",EASY,"""",1
28,1,"""","""","""","""","""",image-keyboard-response,65,264363,0.0-9.0-0.7,"""",null,img/fixation.png,null,"""",fixation,"""","""","""",2021-11-15 03:34:31,24.4.120.49,"Mozilla/5.0 (Macintosh; Intel Mac OS X 10_15_7) AppleWebKit/537.36 (KHTML, like Gecko) Chrome/95.0.4638.69 Safari/537.36",Macintosh,Chrome,95.0.4638.69,OS X,10_15_7,fc80173b241c556346404f5d33b3977b,"""","""",EASY,"""",1
28,1,"""","""","""","""","""",image-keyboard-response,66,265037,0.0-9.0-1.7,"""",671.2000000476837,img/heart_right.png,j,"""",response,j,1,"""",2021-11-15 03:34:31,24.4.120.49,"Mozilla/5.0 (Macintosh; Intel Mac OS X 10_15_7) AppleWebKit/537.36 (KHTML, like Gecko) Chrome/95.0.4638.69 Safari/537.36",Macintosh,Chrome,95.0.4638.69,OS X,10_15_7,fc80173b241c556346404f5d33b3977b,"""","""",EASY,"""",1
28,1,"""","""","""","""","""",image-keyboard-response,67,265788,0.0-9.0-0.8,"""",null,img/fixation.png,null,"""",fixation,"""","""","""",2021-11-15 03:34:31,24.4.120.49,"Mozilla/5.0 (Macintosh; Intel Mac OS X 10_15_7) AppleWebKit/537.36 (KHTML, like Gecko) Chrome/95.0.4638.69 Safari/537.36",Macintosh,Chrome,95.0.4638.69,OS X,10_15_7,fc80173b241c556346404f5d33b3977b,"""","""",EASY,"""",1
28,1,"""","""","""","""","""",image-keyboard-response,68,266416,0.0-9.0-1.8,"""",626,img/flower_left.png,j,"""",response,j,1,"""",2021-11-15 03:34:31,24.4.120.49,"Mozilla/5.0 (Macintosh; Intel Mac OS X 10_15_7) AppleWebKit/537.36 (KHTML, like Gecko) Chrome/95.0.4638.69 Safari/537.36",Macintosh,Chrome,95.0.4638.69,OS X,10_15_7,fc80173b241c556346404f5d33b3977b,"""","""",EASY,"""",1
28,1,"""","""","""","""","""",image-keyboard-response,69,267420,0.0-9.0-0.9,"""",null,img/fixation.png,null,"""",fixation,"""","""","""",2021-11-15 03:34:31,24.4.120.49,"Mozilla/5.0 (Macintosh; Intel Mac OS X 10_15_7) AppleWebKit/537.36 (KHTML, like Gecko) Chrome/95.0.4638.69 Safari/537.36",Macintosh,Chrome,95.0.4638.69,OS X,10_15_7,fc80173b241c556346404f5d33b3977b,"""","""",EASY,"""",1
28,1,"""","""","""","""","""",image-keyboard-response,70,267901,0.0-9.0-1.9,"""",479.60000002384186,img/flower_right.png,j,"""",response,f,0,"""",2021-11-15 03:34:31,24.4.120.49,"Mozilla/5.0 (Macintosh; Intel Mac OS X 10_15_7) AppleWebKit/537.36 (KHTML, like Gecko) Chrome/95.0.4638.69 Safari/537.36",Macintosh,Chrome,95.0.4638.69,OS X,10_15_7,fc80173b241c556346404f5d33b3977b,"""","""",EASY,"""",1
28,1,"""","""","""","""","""",html-keyboard-response,71,271408,0.0-10.0,"""",3506.399999976158,"<p>You responded correctly on 90% of the trials.</p>
      <p>Your average response time was 639ms.</p>
      <p>Press any key to begin Block 2!</p>",j,"""",debrief,"""","""","""",2021-11-15 03:34:31,24.4.120.49,"Mozilla/5.0 (Macintosh; Intel Mac OS X 10_15_7) AppleWebKit/537.36 (KHTML, like Gecko) Chrome/95.0.4638.69 Safari/537.36",Macintosh,Chrome,95.0.4638.69,OS X,10_15_7,fc80173b241c556346404f5d33b3977b,"""","""",EASY,"""",""""
28,1,"""","""","""","""","""",html-button-response,72,272990,0.0-11.0,"""",1579.2999999523163,Block 2,0,"""","""","""","""","""",2021-11-15 03:34:31,24.4.120.49,"Mozilla/5.0 (Macintosh; Intel Mac OS X 10_15_7) AppleWebKit/537.36 (KHTML, like Gecko) Chrome/95.0.4638.69 Safari/537.36",Macintosh,Chrome,95.0.4638.69,OS X,10_15_7,fc80173b241c556346404f5d33b3977b,"""","""",EASY,"""",""""
28,1,"""","""","""","""","""",image-keyboard-response,73,276499,0.0-12.0-0.0,"""",null,img/fixation.png,null,"""",fixation,"""","""","""",2021-11-15 03:34:31,24.4.120.49,"Mozilla/5.0 (Macintosh; Intel Mac OS X 10_15_7) AppleWebKit/537.36 (KHTML, like Gecko) Chrome/95.0.4638.69 Safari/537.36",Macintosh,Chrome,95.0.4638.69,OS X,10_15_7,fc80173b241c556346404f5d33b3977b,"""","""",EASY,"""",2
28,1,"""","""","""","""","""",image-keyboard-response,74,277049,0.0-12.0-1.0,"""",548.6999999284744,img/flower_right.png,f,"""",response,f,1,"""",2021-11-15 03:34:31,24.4.120.49,"Mozilla/5.0 (Macintosh; Intel Mac OS X 10_15_7) AppleWebKit/537.36 (KHTML, like Gecko) Chrome/95.0.4638.69 Safari/537.36",Macintosh,Chrome,95.0.4638.69,OS X,10_15_7,fc80173b241c556346404f5d33b3977b,"""","""",EASY,"""",2
28,1,"""","""","""","""","""",image-keyboard-response,75,278553,0.0-12.0-0.1,"""",null,img/fixation.png,null,"""",fixation,"""","""","""",2021-11-15 03:34:31,24.4.120.49,"Mozilla/5.0 (Macintosh; Intel Mac OS X 10_15_7) AppleWebKit/537.36 (KHTML, like Gecko) Chrome/95.0.4638.69 Safari/537.36",Macintosh,Chrome,95.0.4638.69,OS X,10_15_7,fc80173b241c556346404f5d33b3977b,"""","""",EASY,"""",2
28,1,"""","""","""","""","""",image-keyboard-response,76,279171,0.0-12.0-1.1,"""",616.5,img/heart_left.png,f,"""",response,f,1,"""",2021-11-15 03:34:31,24.4.120.49,"Mozilla/5.0 (Macintosh; Intel Mac OS X 10_15_7) AppleWebKit/537.36 (KHTML, like Gecko) Chrome/95.0.4638.69 Safari/537.36",Macintosh,Chrome,95.0.4638.69,OS X,10_15_7,fc80173b241c556346404f5d33b3977b,"""","""",EASY,"""",2
28,1,"""","""","""","""","""",image-keyboard-response,77,280677,0.0-12.0-0.2,"""",null,img/fixation.png,null,"""",fixation,"""","""","""",2021-11-15 03:34:31,24.4.120.49,"Mozilla/5.0 (Macintosh; Intel Mac OS X 10_15_7) AppleWebKit/537.36 (KHTML, like Gecko) Chrome/95.0.4638.69 Safari/537.36",Macintosh,Chrome,95.0.4638.69,OS X,10_15_7,fc80173b241c556346404f5d33b3977b,"""","""",EASY,"""",2
28,1,"""","""","""","""","""",image-keyboard-response,78,281301,0.0-12.0-1.2,"""",623.4000000953674,img/heart_right.png,j,"""",response,j,1,"""",2021-11-15 03:34:31,24.4.120.49,"Mozilla/5.0 (Macintosh; Intel Mac OS X 10_15_7) AppleWebKit/537.36 (KHTML, like Gecko) Chrome/95.0.4638.69 Safari/537.36",Macintosh,Chrome,95.0.4638.69,OS X,10_15_7,fc80173b241c556346404f5d33b3977b,"""","""",EASY,"""",2
28,1,"""","""","""","""","""",image-keyboard-response,79,282808,0.0-12.0-0.3,"""",null,img/fixation.png,null,"""",fixation,"""","""","""",2021-11-15 03:34:31,24.4.120.49,"Mozilla/5.0 (Macintosh; Intel Mac OS X 10_15_7) AppleWebKit/537.36 (KHTML, like Gecko) Chrome/95.0.4638.69 Safari/537.36",Macintosh,Chrome,95.0.4638.69,OS X,10_15_7,fc80173b241c556346404f5d33b3977b,"""","""",EASY,"""",2
28,1,"""","""","""","""","""",image-keyboard-response,80,283568,0.0-12.0-1.3,"""",756.7000000476837,img/heart_right.png,j,"""",response,j,1,"""",2021-11-15 03:34:31,24.4.120.49,"Mozilla/5.0 (Macintosh; Intel Mac OS X 10_15_7) AppleWebKit/537.36 (KHTML, like Gecko) Chrome/95.0.4638.69 Safari/537.36",Macintosh,Chrome,95.0.4638.69,OS X,10_15_7,fc80173b241c556346404f5d33b3977b,"""","""",EASY,"""",2
28,1,"""","""","""","""","""",image-keyboard-response,81,284573,0.0-12.0-0.4,"""",null,img/fixation.png,null,"""",fixation,"""","""","""",2021-11-15 03:34:31,24.4.120.49,"Mozilla/5.0 (Macintosh; Intel Mac OS X 10_15_7) AppleWebKit/537.36 (KHTML, like Gecko) Chrome/95.0.4638.69 Safari/537.36",Macintosh,Chrome,95.0.4638.69,OS X,10_15_7,fc80173b241c556346404f5d33b3977b,"""","""",EASY,"""",2
28,1,"""","""","""","""","""",image-keyboard-response,82,285266,0.0-12.0-1.4,"""",691.5,img/heart_left.png,f,"""",response,f,1,"""",2021-11-15 03:34:31,24.4.120.49,"Mozilla/5.0 (Macintosh; Intel Mac OS X 10_15_7) AppleWebKit/537.36 (KHTML, like Gecko) Chrome/95.0.4638.69 Safari/537.36",Macintosh,Chrome,95.0.4638.69,OS X,10_15_7,fc80173b241c556346404f5d33b3977b,"""","""",EASY,"""",2
28,1,"""","""","""","""","""",image-keyboard-response,83,286270,0.0-12.0-0.5,"""",null,img/fixation.png,null,"""",fixation,"""","""","""",2021-11-15 03:34:31,24.4.120.49,"Mozilla/5.0 (Macintosh; Intel Mac OS X 10_15_7) AppleWebKit/537.36 (KHTML, like Gecko) Chrome/95.0.4638.69 Safari/537.36",Macintosh,Chrome,95.0.4638.69,OS X,10_15_7,fc80173b241c556346404f5d33b3977b,"""","""",EASY,"""",2
28,1,"""","""","""","""","""",image-keyboard-response,84,286870,0.0-12.0-1.5,"""",598.0999999046326,img/heart_right.png,j,"""",response,j,1,"""",2021-11-15 03:34:31,24.4.120.49,"Mozilla/5.0 (Macintosh; Intel Mac OS X 10_15_7) AppleWebKit/537.36 (KHTML, like Gecko) Chrome/95.0.4638.69 Safari/537.36",Macintosh,Chrome,95.0.4638.69,OS X,10_15_7,fc80173b241c556346404f5d33b3977b,"""","""",EASY,"""",2
28,1,"""","""","""","""","""",image-keyboard-response,85,288875,0.0-12.0-0.6,"""",null,img/fixation.png,null,"""",fixation,"""","""","""",2021-11-15 03:34:31,24.4.120.49,"Mozilla/5.0 (Macintosh; Intel Mac OS X 10_15_7) AppleWebKit/537.36 (KHTML, like Gecko) Chrome/95.0.4638.69 Safari/537.36",Macintosh,Chrome,95.0.4638.69,OS X,10_15_7,fc80173b241c556346404f5d33b3977b,"""","""",EASY,"""",2
28,1,"""","""","""","""","""",image-keyboard-response,86,289340,0.0-12.0-1.6,"""",449.3000000715256,img/heart_right.png,j,"""",response,j,1,"""",2021-11-15 03:34:31,24.4.120.49,"Mozilla/5.0 (Macintosh; Intel Mac OS X 10_15_7) AppleWebKit/537.36 (KHTML, like Gecko) Chrome/95.0.4638.69 Safari/537.36",Macintosh,Chrome,95.0.4638.69,OS X,10_15_7,fc80173b241c556346404f5d33b3977b,"""","""",EASY,"""",2
28,1,"""","""","""","""","""",image-keyboard-response,87,290346,0.0-12.0-0.7,"""",null,img/fixation.png,null,"""",fixation,"""","""","""",2021-11-15 03:34:31,24.4.120.49,"Mozilla/5.0 (Macintosh; Intel Mac OS X 10_15_7) AppleWebKit/537.36 (KHTML, like Gecko) Chrome/95.0.4638.69 Safari/537.36",Macintosh,Chrome,95.0.4638.69,OS X,10_15_7,fc80173b241c556346404f5d33b3977b,"""","""",EASY,"""",2
28,1,"""","""","""","""","""",image-keyboard-response,88,290995,0.0-12.0-1.7,"""",647.5,img/flower_left.png,j,"""",response,j,1,"""",2021-11-15 03:34:31,24.4.120.49,"Mozilla/5.0 (Macintosh; Intel Mac OS X 10_15_7) AppleWebKit/537.36 (KHTML, like Gecko) Chrome/95.0.4638.69 Safari/537.36",Macintosh,Chrome,95.0.4638.69,OS X,10_15_7,fc80173b241c556346404f5d33b3977b,"""","""",EASY,"""",2
28,1,"""","""","""","""","""",image-keyboard-response,89,291499,0.0-12.0-0.8,"""",null,img/fixation.png,null,"""",fixation,"""","""","""",2021-11-15 03:34:31,24.4.120.49,"Mozilla/5.0 (Macintosh; Intel Mac OS X 10_15_7) AppleWebKit/537.36 (KHTML, like Gecko) Chrome/95.0.4638.69 Safari/537.36",Macintosh,Chrome,95.0.4638.69,OS X,10_15_7,fc80173b241c556346404f5d33b3977b,"""","""",EASY,"""",2
28,1,"""","""","""","""","""",image-keyboard-response,90,292131,0.0-12.0-1.8,"""",631.2000000476837,img/flower_left.png,j,"""",response,j,1,"""",2021-11-15 03:34:31,24.4.120.49,"Mozilla/5.0 (Macintosh; Intel Mac OS X 10_15_7) AppleWebKit/537.36 (KHTML, like Gecko) Chrome/95.0.4638.69 Safari/537.36",Macintosh,Chrome,95.0.4638.69,OS X,10_15_7,fc80173b241c556346404f5d33b3977b,"""","""",EASY,"""",2
28,1,"""","""","""","""","""",image-keyboard-response,91,292386,0.0-12.0-0.9,"""",null,img/fixation.png,null,"""",fixation,"""","""","""",2021-11-15 03:34:31,24.4.120.49,"Mozilla/5.0 (Macintosh; Intel Mac OS X 10_15_7) AppleWebKit/537.36 (KHTML, like Gecko) Chrome/95.0.4638.69 Safari/537.36",Macintosh,Chrome,95.0.4638.69,OS X,10_15_7,fc80173b241c556346404f5d33b3977b,"""","""",EASY,"""",2
28,1,"""","""","""","""","""",image-keyboard-response,92,292940,0.0-12.0-1.9,"""",552.5,img/flower_left.png,j,"""",response,j,1,"""",2021-11-15 03:34:31,24.4.120.49,"Mozilla/5.0 (Macintosh; Intel Mac OS X 10_15_7) AppleWebKit/537.36 (KHTML, like Gecko) Chrome/95.0.4638.69 Safari/537.36",Macintosh,Chrome,95.0.4638.69,OS X,10_15_7,fc80173b241c556346404f5d33b3977b,"""","""",EASY,"""",2
28,1,"""","""","""","""","""",html-keyboard-response,93,295804,0.0-13.0,"""",2862.8000000715256,"<p>You responded correctly on 100% of the trials.</p>
      <p>Your average response time was 612ms.</p>
      <p>Press any key to begin Block 3!</p>",j,"""",debrief,"""","""","""",2021-11-15 03:34:31,24.4.120.49,"Mozilla/5.0 (Macintosh; Intel Mac OS X 10_15_7) AppleWebKit/537.36 (KHTML, like Gecko) Chrome/95.0.4638.69 Safari/537.36",Macintosh,Chrome,95.0.4638.69,OS X,10_15_7,fc80173b241c556346404f5d33b3977b,"""","""",EASY,"""",""""
28,1,"""","""","""","""","""",html-button-response,94,296961,0.0-14.0,"""",1155.2000000476837,Block 3,0,"""","""","""","""","""",2021-11-15 03:34:31,24.4.120.49,"Mozilla/5.0 (Macintosh; Intel Mac OS X 10_15_7) AppleWebKit/537.36 (KHTML, like Gecko) Chrome/95.0.4638.69 Safari/537.36",Macintosh,Chrome,95.0.4638.69,OS X,10_15_7,fc80173b241c556346404f5d33b3977b,"""","""",EASY,"""",""""
28,1,"""","""","""","""","""",image-keyboard-response,95,300717,0.0-15.0-0.0,"""",null,img/fixation.png,null,"""",fixation,"""","""","""",2021-11-15 03:34:31,24.4.120.49,"Mozilla/5.0 (Macintosh; Intel Mac OS X 10_15_7) AppleWebKit/537.36 (KHTML, like Gecko) Chrome/95.0.4638.69 Safari/537.36",Macintosh,Chrome,95.0.4638.69,OS X,10_15_7,fc80173b241c556346404f5d33b3977b,"""","""",EASY,"""",3
28,1,"""","""","""","""","""",image-keyboard-response,96,301272,0.0-15.0-1.0,"""",553.8999999761581,img/heart_left.png,f,"""",response,f,1,"""",2021-11-15 03:34:31,24.4.120.49,"Mozilla/5.0 (Macintosh; Intel Mac OS X 10_15_7) AppleWebKit/537.36 (KHTML, like Gecko) Chrome/95.0.4638.69 Safari/537.36",Macintosh,Chrome,95.0.4638.69,OS X,10_15_7,fc80173b241c556346404f5d33b3977b,"""","""",EASY,"""",3
28,1,"""","""","""","""","""",image-keyboard-response,97,301773,0.0-15.0-0.1,"""",null,img/fixation.png,null,"""",fixation,"""","""","""",2021-11-15 03:34:31,24.4.120.49,"Mozilla/5.0 (Macintosh; Intel Mac OS X 10_15_7) AppleWebKit/537.36 (KHTML, like Gecko) Chrome/95.0.4638.69 Safari/537.36",Macintosh,Chrome,95.0.4638.69,OS X,10_15_7,fc80173b241c556346404f5d33b3977b,"""","""",EASY,"""",3
28,1,"""","""","""","""","""",image-keyboard-response,98,302260,0.0-15.0-1.1,"""",483.3000000715256,img/heart_right.png,j,"""",response,j,1,"""",2021-11-15 03:34:31,24.4.120.49,"Mozilla/5.0 (Macintosh; Intel Mac OS X 10_15_7) AppleWebKit/537.36 (KHTML, like Gecko) Chrome/95.0.4638.69 Safari/537.36",Macintosh,Chrome,95.0.4638.69,OS X,10_15_7,fc80173b241c556346404f5d33b3977b,"""","""",EASY,"""",3
28,1,"""","""","""","""","""",image-keyboard-response,99,302761,0.0-15.0-0.2,"""",null,img/fixation.png,null,"""",fixation,"""","""","""",2021-11-15 03:34:31,24.4.120.49,"Mozilla/5.0 (Macintosh; Intel Mac OS X 10_15_7) AppleWebKit/537.36 (KHTML, like Gecko) Chrome/95.0.4638.69 Safari/537.36",Macintosh,Chrome,95.0.4638.69,OS X,10_15_7,fc80173b241c556346404f5d33b3977b,"""","""",EASY,"""",3
28,1,"""","""","""","""","""",image-keyboard-response,100,303214,0.0-15.0-1.2,"""",451.89999997615814,img/heart_right.png,j,"""",response,j,1,"""",2021-11-15 03:34:31,24.4.120.49,"Mozilla/5.0 (Macintosh; Intel Mac OS X 10_15_7) AppleWebKit/537.36 (KHTML, like Gecko) Chrome/95.0.4638.69 Safari/537.36",Macintosh,Chrome,95.0.4638.69,OS X,10_15_7,fc80173b241c556346404f5d33b3977b,"""","""",EASY,"""",3
28,1,"""","""","""","""","""",image-keyboard-response,101,304715,0.0-15.0-0.3,"""",null,img/fixation.png,null,"""",fixation,"""","""","""",2021-11-15 03:34:31,24.4.120.49,"Mozilla/5.0 (Macintosh; Intel Mac OS X 10_15_7) AppleWebKit/537.36 (KHTML, like Gecko) Chrome/95.0.4638.69 Safari/537.36",Macintosh,Chrome,95.0.4638.69,OS X,10_15_7,fc80173b241c556346404f5d33b3977b,"""","""",EASY,"""",3
28,1,"""","""","""","""","""",image-keyboard-response,102,305188,0.0-15.0-1.3,"""",471.2999999523163,img/heart_left.png,f,"""",response,f,1,"""",2021-11-15 03:34:31,24.4.120.49,"Mozilla/5.0 (Macintosh; Intel Mac OS X 10_15_7) AppleWebKit/537.36 (KHTML, like Gecko) Chrome/95.0.4638.69 Safari/537.36",Macintosh,Chrome,95.0.4638.69,OS X,10_15_7,fc80173b241c556346404f5d33b3977b,"""","""",EASY,"""",3
28,1,"""","""","""","""","""",image-keyboard-response,103,306939,0.0-15.0-0.4,"""",null,img/fixation.png,null,"""",fixation,"""","""","""",2021-11-15 03:34:31,24.4.120.49,"Mozilla/5.0 (Macintosh; Intel Mac OS X 10_15_7) AppleWebKit/537.36 (KHTML, like Gecko) Chrome/95.0.4638.69 Safari/537.36",Macintosh,Chrome,95.0.4638.69,OS X,10_15_7,fc80173b241c556346404f5d33b3977b,"""","""",EASY,"""",3
28,1,"""","""","""","""","""",image-keyboard-response,104,307345,0.0-15.0-1.4,"""",405.10000002384186,img/heart_left.png,f,"""",response,f,1,"""",2021-11-15 03:34:31,24.4.120.49,"Mozilla/5.0 (Macintosh; Intel Mac OS X 10_15_7) AppleWebKit/537.36 (KHTML, like Gecko) Chrome/95.0.4638.69 Safari/537.36",Macintosh,Chrome,95.0.4638.69,OS X,10_15_7,fc80173b241c556346404f5d33b3977b,"""","""",EASY,"""",3
28,1,"""","""","""","""","""",image-keyboard-response,105,308849,0.0-15.0-0.5,"""",null,img/fixation.png,null,"""",fixation,"""","""","""",2021-11-15 03:34:31,24.4.120.49,"Mozilla/5.0 (Macintosh; Intel Mac OS X 10_15_7) AppleWebKit/537.36 (KHTML, like Gecko) Chrome/95.0.4638.69 Safari/537.36",Macintosh,Chrome,95.0.4638.69,OS X,10_15_7,fc80173b241c556346404f5d33b3977b,"""","""",EASY,"""",3
28,1,"""","""","""","""","""",image-keyboard-response,106,309430,0.0-15.0-1.5,"""",577.3999999761581,img/flower_left.png,j,"""",response,j,1,"""",2021-11-15 03:34:31,24.4.120.49,"Mozilla/5.0 (Macintosh; Intel Mac OS X 10_15_7) AppleWebKit/537.36 (KHTML, like Gecko) Chrome/95.0.4638.69 Safari/537.36",Macintosh,Chrome,95.0.4638.69,OS X,10_15_7,fc80173b241c556346404f5d33b3977b,"""","""",EASY,"""",3
28,1,"""","""","""","""","""",image-keyboard-response,107,310434,0.0-15.0-0.6,"""",null,img/fixation.png,null,"""",fixation,"""","""","""",2021-11-15 03:34:31,24.4.120.49,"Mozilla/5.0 (Macintosh; Intel Mac OS X 10_15_7) AppleWebKit/537.36 (KHTML, like Gecko) Chrome/95.0.4638.69 Safari/537.36",Macintosh,Chrome,95.0.4638.69,OS X,10_15_7,fc80173b241c556346404f5d33b3977b,"""","""",EASY,"""",3
28,1,"""","""","""","""","""",image-keyboard-response,108,311138,0.0-15.0-1.6,"""",701.6000000238419,img/heart_right.png,f,"""",response,j,0,"""",2021-11-15 03:34:31,24.4.120.49,"Mozilla/5.0 (Macintosh; Intel Mac OS X 10_15_7) AppleWebKit/537.36 (KHTML, like Gecko) Chrome/95.0.4638.69 Safari/537.36",Macintosh,Chrome,95.0.4638.69,OS X,10_15_7,fc80173b241c556346404f5d33b3977b,"""","""",EASY,"""",3
28,1,"""","""","""","""","""",image-keyboard-response,109,313139,0.0-15.0-0.7,"""",null,img/fixation.png,null,"""",fixation,"""","""","""",2021-11-15 03:34:31,24.4.120.49,"Mozilla/5.0 (Macintosh; Intel Mac OS X 10_15_7) AppleWebKit/537.36 (KHTML, like Gecko) Chrome/95.0.4638.69 Safari/537.36",Macintosh,Chrome,95.0.4638.69,OS X,10_15_7,fc80173b241c556346404f5d33b3977b,"""","""",EASY,"""",3
28,1,"""","""","""","""","""",image-keyboard-response,110,313729,0.0-15.0-1.7,"""",588.6000000238419,img/heart_left.png,f,"""",response,f,1,"""",2021-11-15 03:34:31,24.4.120.49,"Mozilla/5.0 (Macintosh; Intel Mac OS X 10_15_7) AppleWebKit/537.36 (KHTML, like Gecko) Chrome/95.0.4638.69 Safari/537.36",Macintosh,Chrome,95.0.4638.69,OS X,10_15_7,fc80173b241c556346404f5d33b3977b,"""","""",EASY,"""",3
28,1,"""","""","""","""","""",image-keyboard-response,111,315485,0.0-15.0-0.8,"""",null,img/fixation.png,null,"""",fixation,"""","""","""",2021-11-15 03:34:31,24.4.120.49,"Mozilla/5.0 (Macintosh; Intel Mac OS X 10_15_7) AppleWebKit/537.36 (KHTML, like Gecko) Chrome/95.0.4638.69 Safari/537.36",Macintosh,Chrome,95.0.4638.69,OS X,10_15_7,fc80173b241c556346404f5d33b3977b,"""","""",EASY,"""",3
28,1,"""","""","""","""","""",image-keyboard-response,112,316221,0.0-15.0-1.8,"""",733.5,img/flower_right.png,f,"""",response,f,1,"""",2021-11-15 03:34:31,24.4.120.49,"Mozilla/5.0 (Macintosh; Intel Mac OS X 10_15_7) AppleWebKit/537.36 (KHTML, like Gecko) Chrome/95.0.4638.69 Safari/537.36",Macintosh,Chrome,95.0.4638.69,OS X,10_15_7,fc80173b241c556346404f5d33b3977b,"""","""",EASY,"""",3
28,1,"""","""","""","""","""",image-keyboard-response,113,318224,0.0-15.0-0.9,"""",null,img/fixation.png,null,"""",fixation,"""","""","""",2021-11-15 03:34:31,24.4.120.49,"Mozilla/5.0 (Macintosh; Intel Mac OS X 10_15_7) AppleWebKit/537.36 (KHTML, like Gecko) Chrome/95.0.4638.69 Safari/537.36",Macintosh,Chrome,95.0.4638.69,OS X,10_15_7,fc80173b241c556346404f5d33b3977b,"""","""",EASY,"""",3
28,1,"""","""","""","""","""",image-keyboard-response,114,318861,0.0-15.0-1.9,"""",635.1000000238419,img/flower_left.png,j,"""",response,j,1,"""",2021-11-15 03:34:31,24.4.120.49,"Mozilla/5.0 (Macintosh; Intel Mac OS X 10_15_7) AppleWebKit/537.36 (KHTML, like Gecko) Chrome/95.0.4638.69 Safari/537.36",Macintosh,Chrome,95.0.4638.69,OS X,10_15_7,fc80173b241c556346404f5d33b3977b,"""","""",EASY,"""",3
28,1,"""","""","""","""","""",html-keyboard-response,115,321631,0.0-16.0,"""",2768.899999976158,"<p>You responded correctly on 90% of the trials.</p>
      <p>Your average response time was 544ms.</p>
      <p>Press any key to begin the final Block 4!</p>",j,"""",debrief,"""","""","""",2021-11-15 03:34:31,24.4.120.49,"Mozilla/5.0 (Macintosh; Intel Mac OS X 10_15_7) AppleWebKit/537.36 (KHTML, like Gecko) Chrome/95.0.4638.69 Safari/537.36",Macintosh,Chrome,95.0.4638.69,OS X,10_15_7,fc80173b241c556346404f5d33b3977b,"""","""",EASY,"""",""""
28,1,"""","""","""","""","""",html-button-response,116,322824,0.0-17.0,"""",1190.8999999761581,Block 4,0,"""","""","""","""","""",2021-11-15 03:34:31,24.4.120.49,"Mozilla/5.0 (Macintosh; Intel Mac OS X 10_15_7) AppleWebKit/537.36 (KHTML, like Gecko) Chrome/95.0.4638.69 Safari/537.36",Macintosh,Chrome,95.0.4638.69,OS X,10_15_7,fc80173b241c556346404f5d33b3977b,"""","""",EASY,"""",""""
28,1,"""","""","""","""","""",image-keyboard-response,117,326583,0.0-18.0-0.0,"""",null,img/fixation.png,null,"""",fixation,"""","""","""",2021-11-15 03:34:31,24.4.120.49,"Mozilla/5.0 (Macintosh; Intel Mac OS X 10_15_7) AppleWebKit/537.36 (KHTML, like Gecko) Chrome/95.0.4638.69 Safari/537.36",Macintosh,Chrome,95.0.4638.69,OS X,10_15_7,fc80173b241c556346404f5d33b3977b,"""","""",EASY,"""",4
28,1,"""","""","""","""","""",image-keyboard-response,118,327142,0.0-18.0-1.0,"""",557.1000000238419,img/heart_right.png,f,"""",response,j,0,"""",2021-11-15 03:34:31,24.4.120.49,"Mozilla/5.0 (Macintosh; Intel Mac OS X 10_15_7) AppleWebKit/537.36 (KHTML, like Gecko) Chrome/95.0.4638.69 Safari/537.36",Macintosh,Chrome,95.0.4638.69,OS X,10_15_7,fc80173b241c556346404f5d33b3977b,"""","""",EASY,"""",4
28,1,"""","""","""","""","""",image-keyboard-response,119,329143,0.0-18.0-0.1,"""",null,img/fixation.png,null,"""",fixation,"""","""","""",2021-11-15 03:34:31,24.4.120.49,"Mozilla/5.0 (Macintosh; Intel Mac OS X 10_15_7) AppleWebKit/537.36 (KHTML, like Gecko) Chrome/95.0.4638.69 Safari/537.36",Macintosh,Chrome,95.0.4638.69,OS X,10_15_7,fc80173b241c556346404f5d33b3977b,"""","""",EASY,"""",4
28,1,"""","""","""","""","""",image-keyboard-response,120,329840,0.0-18.0-1.1,"""",693.3999999761581,img/flower_right.png,f,"""",response,f,1,"""",2021-11-15 03:34:31,24.4.120.49,"Mozilla/5.0 (Macintosh; Intel Mac OS X 10_15_7) AppleWebKit/537.36 (KHTML, like Gecko) Chrome/95.0.4638.69 Safari/537.36",Macintosh,Chrome,95.0.4638.69,OS X,10_15_7,fc80173b241c556346404f5d33b3977b,"""","""",EASY,"""",4
28,1,"""","""","""","""","""",image-keyboard-response,121,330595,0.0-18.0-0.2,"""",null,img/fixation.png,null,"""",fixation,"""","""","""",2021-11-15 03:34:31,24.4.120.49,"Mozilla/5.0 (Macintosh; Intel Mac OS X 10_15_7) AppleWebKit/537.36 (KHTML, like Gecko) Chrome/95.0.4638.69 Safari/537.36",Macintosh,Chrome,95.0.4638.69,OS X,10_15_7,fc80173b241c556346404f5d33b3977b,"""","""",EASY,"""",4
28,1,"""","""","""","""","""",image-keyboard-response,122,331562,0.0-18.0-1.2,"""",966.3999999761581,img/flower_left.png,j,"""",response,j,1,"""",2021-11-15 03:34:31,24.4.120.49,"Mozilla/5.0 (Macintosh; Intel Mac OS X 10_15_7) AppleWebKit/537.36 (KHTML, like Gecko) Chrome/95.0.4638.69 Safari/537.36",Macintosh,Chrome,95.0.4638.69,OS X,10_15_7,fc80173b241c556346404f5d33b3977b,"""","""",EASY,"""",4
28,1,"""","""","""","""","""",image-keyboard-response,123,333317,0.0-18.0-0.3,"""",null,img/fixation.png,null,"""",fixation,"""","""","""",2021-11-15 03:34:31,24.4.120.49,"Mozilla/5.0 (Macintosh; Intel Mac OS X 10_15_7) AppleWebKit/537.36 (KHTML, like Gecko) Chrome/95.0.4638.69 Safari/537.36",Macintosh,Chrome,95.0.4638.69,OS X,10_15_7,fc80173b241c556346404f5d33b3977b,"""","""",EASY,"""",4
28,1,"""","""","""","""","""",image-keyboard-response,124,333997,0.0-18.0-1.3,"""",678.9000000953674,img/flower_right.png,f,"""",response,f,1,"""",2021-11-15 03:34:31,24.4.120.49,"Mozilla/5.0 (Macintosh; Intel Mac OS X 10_15_7) AppleWebKit/537.36 (KHTML, like Gecko) Chrome/95.0.4638.69 Safari/537.36",Macintosh,Chrome,95.0.4638.69,OS X,10_15_7,fc80173b241c556346404f5d33b3977b,"""","""",EASY,"""",4
28,1,"""","""","""","""","""",image-keyboard-response,125,334751,0.0-18.0-0.4,"""",null,img/fixation.png,null,"""",fixation,"""","""","""",2021-11-15 03:34:31,24.4.120.49,"Mozilla/5.0 (Macintosh; Intel Mac OS X 10_15_7) AppleWebKit/537.36 (KHTML, like Gecko) Chrome/95.0.4638.69 Safari/537.36",Macintosh,Chrome,95.0.4638.69,OS X,10_15_7,fc80173b241c556346404f5d33b3977b,"""","""",EASY,"""",4
28,1,"""","""","""","""","""",image-keyboard-response,126,335608,0.0-18.0-1.4,"""",855.3000000715256,img/heart_right.png,j,"""",response,j,1,"""",2021-11-15 03:34:31,24.4.120.49,"Mozilla/5.0 (Macintosh; Intel Mac OS X 10_15_7) AppleWebKit/537.36 (KHTML, like Gecko) Chrome/95.0.4638.69 Safari/537.36",Macintosh,Chrome,95.0.4638.69,OS X,10_15_7,fc80173b241c556346404f5d33b3977b,"""","""",EASY,"""",4
28,1,"""","""","""","""","""",image-keyboard-response,127,336111,0.0-18.0-0.5,"""",null,img/fixation.png,null,"""",fixation,"""","""","""",2021-11-15 03:34:31,24.4.120.49,"Mozilla/5.0 (Macintosh; Intel Mac OS X 10_15_7) AppleWebKit/537.36 (KHTML, like Gecko) Chrome/95.0.4638.69 Safari/537.36",Macintosh,Chrome,95.0.4638.69,OS X,10_15_7,fc80173b241c556346404f5d33b3977b,"""","""",EASY,"""",4
28,1,"""","""","""","""","""",image-keyboard-response,128,337211,0.0-18.0-1.5,"""",1098,img/flower_left.png,j,"""",response,j,1,"""",2021-11-15 03:34:31,24.4.120.49,"Mozilla/5.0 (Macintosh; Intel Mac OS X 10_15_7) AppleWebKit/537.36 (KHTML, like Gecko) Chrome/95.0.4638.69 Safari/537.36",Macintosh,Chrome,95.0.4638.69,OS X,10_15_7,fc80173b241c556346404f5d33b3977b,"""","""",EASY,"""",4
28,1,"""","""","""","""","""",image-keyboard-response,129,339215,0.0-18.0-0.6,"""",null,img/fixation.png,null,"""",fixation,"""","""","""",2021-11-15 03:34:31,24.4.120.49,"Mozilla/5.0 (Macintosh; Intel Mac OS X 10_15_7) AppleWebKit/537.36 (KHTML, like Gecko) Chrome/95.0.4638.69 Safari/537.36",Macintosh,Chrome,95.0.4638.69,OS X,10_15_7,fc80173b241c556346404f5d33b3977b,"""","""",EASY,"""",4
28,1,"""","""","""","""","""",image-keyboard-response,130,339692,0.0-18.0-1.6,"""",475.10000002384186,img/heart_right.png,j,"""",response,j,1,"""",2021-11-15 03:34:31,24.4.120.49,"Mozilla/5.0 (Macintosh; Intel Mac OS X 10_15_7) AppleWebKit/537.36 (KHTML, like Gecko) Chrome/95.0.4638.69 Safari/537.36",Macintosh,Chrome,95.0.4638.69,OS X,10_15_7,fc80173b241c556346404f5d33b3977b,"""","""",EASY,"""",4
28,1,"""","""","""","""","""",image-keyboard-response,131,341444,0.0-18.0-0.7,"""",null,img/fixation.png,null,"""",fixation,"""","""","""",2021-11-15 03:34:31,24.4.120.49,"Mozilla/5.0 (Macintosh; Intel Mac OS X 10_15_7) AppleWebKit/537.36 (KHTML, like Gecko) Chrome/95.0.4638.69 Safari/537.36",Macintosh,Chrome,95.0.4638.69,OS X,10_15_7,fc80173b241c556346404f5d33b3977b,"""","""",EASY,"""",4
28,1,"""","""","""","""","""",image-keyboard-response,132,341893,0.0-18.0-1.7,"""",447.5,img/heart_right.png,j,"""",response,j,1,"""",2021-11-15 03:34:31,24.4.120.49,"Mozilla/5.0 (Macintosh; Intel Mac OS X 10_15_7) AppleWebKit/537.36 (KHTML, like Gecko) Chrome/95.0.4638.69 Safari/537.36",Macintosh,Chrome,95.0.4638.69,OS X,10_15_7,fc80173b241c556346404f5d33b3977b,"""","""",EASY,"""",4
28,1,"""","""","""","""","""",image-keyboard-response,133,342159,0.0-18.0-0.8,"""",null,img/fixation.png,null,"""",fixation,"""","""","""",2021-11-15 03:34:31,24.4.120.49,"Mozilla/5.0 (Macintosh; Intel Mac OS X 10_15_7) AppleWebKit/537.36 (KHTML, like Gecko) Chrome/95.0.4638.69 Safari/537.36",Macintosh,Chrome,95.0.4638.69,OS X,10_15_7,fc80173b241c556346404f5d33b3977b,"""","""",EASY,"""",4
28,1,"""","""","""","""","""",image-keyboard-response,134,342958,0.0-18.0-1.8,"""",797.2999999523163,img/flower_left.png,j,"""",response,j,1,"""",2021-11-15 03:34:31,24.4.120.49,"Mozilla/5.0 (Macintosh; Intel Mac OS X 10_15_7) AppleWebKit/537.36 (KHTML, like Gecko) Chrome/95.0.4638.69 Safari/537.36",Macintosh,Chrome,95.0.4638.69,OS X,10_15_7,fc80173b241c556346404f5d33b3977b,"""","""",EASY,"""",4
28,1,"""","""","""","""","""",image-keyboard-response,135,343459,0.0-18.0-0.9,"""",null,img/fixation.png,null,"""",fixation,"""","""","""",2021-11-15 03:34:31,24.4.120.49,"Mozilla/5.0 (Macintosh; Intel Mac OS X 10_15_7) AppleWebKit/537.36 (KHTML, like Gecko) Chrome/95.0.4638.69 Safari/537.36",Macintosh,Chrome,95.0.4638.69,OS X,10_15_7,fc80173b241c556346404f5d33b3977b,"""","""",EASY,"""",4
28,1,"""","""","""","""","""",image-keyboard-response,136,344518,0.0-18.0-1.9,"""",1058.1000000238419,img/flower_right.png,f,"""",response,f,1,"""",2021-11-15 03:34:31,24.4.120.49,"Mozilla/5.0 (Macintosh; Intel Mac OS X 10_15_7) AppleWebKit/537.36 (KHTML, like Gecko) Chrome/95.0.4638.69 Safari/537.36",Macintosh,Chrome,95.0.4638.69,OS X,10_15_7,fc80173b241c556346404f5d33b3977b,"""","""",EASY,"""",4
28,1,"""","""","""","""","""",html-keyboard-response,137,347313,0.0-19.0,"""",2794.600000023842,"<p>You responded correctly on 90% of the trials.</p>
      <p>Your average response time was 786ms.</p>
      <p>Press any key to finish the cognitive experiment!</p>",j,"""",debrief,"""","""","""",2021-11-15 03:34:31,24.4.120.49,"Mozilla/5.0 (Macintosh; Intel Mac OS X 10_15_7) AppleWebKit/537.36 (KHTML, like Gecko) Chrome/95.0.4638.69 Safari/537.36",Macintosh,Chrome,95.0.4638.69,OS X,10_15_7,fc80173b241c556346404f5d33b3977b,"""","""",EASY,"""",""""
28,1,"""","""","""","""","""",html-button-response,138,349591,0.0-20.0,"""",2277.399999976158,"<p>Thank you for your participation! </p><p>The last thing will be a series of questions to capture demographic information.<p><p>When you are ready to answer a few questions, please press START.</p>",0,"""","""","""","""","""",2021-11-15 03:34:31,24.4.120.49,"Mozilla/5.0 (Macintosh; Intel Mac OS X 10_15_7) AppleWebKit/537.36 (KHTML, like Gecko) Chrome/95.0.4638.69 Safari/537.36",Macintosh,Chrome,95.0.4638.69,OS X,10_15_7,fc80173b241c556346404f5d33b3977b,"""","""",EASY,"""",""""
28,1,"""","""","""","""","""",survey-text,139,360600,0.0-21.0,"""",9249.199999928474,"""","{""Q0"":""29"",""Q1"":""01/02/1993"",""Q2"":""White""}","""",age,"""","""","""",2021-11-15 03:34:31,24.4.120.49,"Mozilla/5.0 (Macintosh; Intel Mac OS X 10_15_7) AppleWebKit/537.36 (KHTML, like Gecko) Chrome/95.0.4638.69 Safari/537.36",Macintosh,Chrome,95.0.4638.69,OS X,10_15_7,fc80173b241c556346404f5d33b3977b,"""","""",EASY,"""",""""
28,1,"""","""","""","""","""",survey-multi-choice,140,373356,0.0-22.0,"""",12754.100000023842,"""","{""Q0"":""Masters degree"",""Q1"":""Full-time student""}","""",ses,"""","""","""",2021-11-15 03:34:31,24.4.120.49,"Mozilla/5.0 (Macintosh; Intel Mac OS X 10_15_7) AppleWebKit/537.36 (KHTML, like Gecko) Chrome/95.0.4638.69 Safari/537.36",Macintosh,Chrome,95.0.4638.69,OS X,10_15_7,fc80173b241c556346404f5d33b3977b,"""","""",EASY,"[0,1]",""""
28,1,"""","""","""","""","""",survey-multi-choice,141,378764,0.0-23.0,"""",5404,"""","{""Q0"":""20000""}","""",income,"""","""","""",2021-11-15 03:34:31,24.4.120.49,"Mozilla/5.0 (Macintosh; Intel Mac OS X 10_15_7) AppleWebKit/537.36 (KHTML, like Gecko) Chrome/95.0.4638.69 Safari/537.36",Macintosh,Chrome,95.0.4638.69,OS X,10_15_7,fc80173b241c556346404f5d33b3977b,"""","""",EASY,[0],""""
28,1,"""","""","""","""","""",survey-multi-choice,142,381143,0.0-24.0,"""",2375.899999976158,"""","{""Q0"":""2""}","""",household_size,"""","""","""",2021-11-15 03:34:31,24.4.120.49,"Mozilla/5.0 (Macintosh; Intel Mac OS X 10_15_7) AppleWebKit/537.36 (KHTML, like Gecko) Chrome/95.0.4638.69 Safari/537.36",Macintosh,Chrome,95.0.4638.69,OS X,10_15_7,fc80173b241c556346404f5d33b3977b,"""","""",EASY,[0],""""
28,1,"""","""","""","""","""",html-button-response,143,382296,0.0-25.0,"""",1148.2999999523163,<p>Thanks! You have finished the entire study.</p><p>Please press FINISH to save your data and return to Prolific for compensation.</p>,0,"""","""","""","""","""",2021-11-15 03:34:31,24.4.120.49,"Mozilla/5.0 (Macintosh; Intel Mac OS X 10_15_7) AppleWebKit/537.36 (KHTML, like Gecko) Chrome/95.0.4638.69 Safari/537.36",Macintosh,Chrome,95.0.4638.69,OS X,10_15_7,fc80173b241c556346404f5d33b3977b,"""","""",EASY,"""",""""
29,1,true,"""","""","""","""",fullscreen,0,2370,0.0-0.0,"""","""","""","""","""","""","""","""","""",2021-11-15 06:52:10,24.4.120.49,"Mozilla/5.0 (Macintosh; Intel Mac OS X 10_15_7) AppleWebKit/605.1.15 (KHTML, like Gecko) Version/15.1 Safari/605.1.15",Macintosh,Safari,15.1,OS X,10_15_7,fc80173b241c556346404f5d33b3977b,"""","""",EASY,"""",""""
29,1,true,false,[],[],[],preload,1,3488,0.0-1.0,"""","""","""","""","""","""","""","""","""",2021-11-15 06:52:10,24.4.120.49,"Mozilla/5.0 (Macintosh; Intel Mac OS X 10_15_7) AppleWebKit/605.1.15 (KHTML, like Gecko) Version/15.1 Safari/605.1.15",Macintosh,Safari,15.1,OS X,10_15_7,fc80173b241c556346404f5d33b3977b,"""","""",EASY,"""",""""
29,1,"""","""","""","""","""",html-button-response,2,4640,0.0-2.0,"""",1151,<p>Welcome! Thank you so much for participating in this study. Press START to begin.</p><br>,0,"""","""","""","""","""",2021-11-15 06:52:10,24.4.120.49,"Mozilla/5.0 (Macintosh; Intel Mac OS X 10_15_7) AppleWebKit/605.1.15 (KHTML, like Gecko) Version/15.1 Safari/605.1.15",Macintosh,Safari,15.1,OS X,10_15_7,fc80173b241c556346404f5d33b3977b,"""","""",EASY,"""",""""
29,1,"""","""","""","""","""",html-button-response,3,5483,0.0-3.0,"""",842,"<p>First, you will review a series of hypothetical scenarios each related to finances</p><br><p>Please think about each scenario carefully for approximately <strong>one minute</strong>.</p><br><p>Please reflect and process the scenario as if it were actually happening. Questions will be there to help guide your thinking.</p><p>When you are ready to begin, please press REVIEW to begin the study.",0,"""","""","""","""","""",2021-11-15 06:52:10,24.4.120.49,"Mozilla/5.0 (Macintosh; Intel Mac OS X 10_15_7) AppleWebKit/605.1.15 (KHTML, like Gecko) Version/15.1 Safari/605.1.15",Macintosh,Safari,15.1,OS X,10_15_7,fc80173b241c556346404f5d33b3977b,"""","""",EASY,"""",""""
29,1,"""","""","""","""","""",image-keyboard-response,4,6750,0.0-4.0-0.0,"""",null,img/fixation.png,null,"""",fixation,"""","""","""",2021-11-15 06:52:10,24.4.120.49,"Mozilla/5.0 (Macintosh; Intel Mac OS X 10_15_7) AppleWebKit/605.1.15 (KHTML, like Gecko) Version/15.1 Safari/605.1.15",Macintosh,Safari,15.1,OS X,10_15_7,fc80173b241c556346404f5d33b3977b,"""","""",EASY,"""",""""
29,1,"""","""","""","""","""",image-keyboard-response,5,36761,0.0-4.0-1.0,"""",null,scarcity/easy/scenario4.png,null,"""","""","""","""","""",2021-11-15 06:52:10,24.4.120.49,"Mozilla/5.0 (Macintosh; Intel Mac OS X 10_15_7) AppleWebKit/605.1.15 (KHTML, like Gecko) Version/15.1 Safari/605.1.15",Macintosh,Safari,15.1,OS X,10_15_7,fc80173b241c556346404f5d33b3977b,"""","""",EASY,"""",""""
29,1,"""","""","""","""","""",survey-multi-choice,6,48066,0.0-4.0-2.0,"""",11298,"""","{""Q0"":""Yes"",""Q1"":""No""}","""","""","""","""","""",2021-11-15 06:52:10,24.4.120.49,"Mozilla/5.0 (Macintosh; Intel Mac OS X 10_15_7) AppleWebKit/605.1.15 (KHTML, like Gecko) Version/15.1 Safari/605.1.15",Macintosh,Safari,15.1,OS X,10_15_7,fc80173b241c556346404f5d33b3977b,"""","""",EASY,"[0,1]",""""
29,1,"""","""","""","""","""",image-keyboard-response,7,48320,0.0-4.0-0.1,"""",null,img/fixation.png,null,"""",fixation,"""","""","""",2021-11-15 06:52:10,24.4.120.49,"Mozilla/5.0 (Macintosh; Intel Mac OS X 10_15_7) AppleWebKit/605.1.15 (KHTML, like Gecko) Version/15.1 Safari/605.1.15",Macintosh,Safari,15.1,OS X,10_15_7,fc80173b241c556346404f5d33b3977b,"""","""",EASY,"""",""""
29,1,"""","""","""","""","""",image-keyboard-response,8,78336,0.0-4.0-1.1,"""",null,scarcity/easy/scenario2.png,null,"""","""","""","""","""",2021-11-15 06:52:10,24.4.120.49,"Mozilla/5.0 (Macintosh; Intel Mac OS X 10_15_7) AppleWebKit/605.1.15 (KHTML, like Gecko) Version/15.1 Safari/605.1.15",Macintosh,Safari,15.1,OS X,10_15_7,fc80173b241c556346404f5d33b3977b,"""","""",EASY,"""",""""
29,1,"""","""","""","""","""",survey-multi-choice,9,83410,0.0-4.0-2.1,"""",5072,"""","{""Q0"":""Yes"",""Q1"":""Yes""}","""","""","""","""","""",2021-11-15 06:52:10,24.4.120.49,"Mozilla/5.0 (Macintosh; Intel Mac OS X 10_15_7) AppleWebKit/605.1.15 (KHTML, like Gecko) Version/15.1 Safari/605.1.15",Macintosh,Safari,15.1,OS X,10_15_7,fc80173b241c556346404f5d33b3977b,"""","""",EASY,"[0,1]",""""
29,1,"""","""","""","""","""",image-keyboard-response,10,84664,0.0-4.0-0.2,"""",null,img/fixation.png,null,"""",fixation,"""","""","""",2021-11-15 06:52:10,24.4.120.49,"Mozilla/5.0 (Macintosh; Intel Mac OS X 10_15_7) AppleWebKit/605.1.15 (KHTML, like Gecko) Version/15.1 Safari/605.1.15",Macintosh,Safari,15.1,OS X,10_15_7,fc80173b241c556346404f5d33b3977b,"""","""",EASY,"""",""""
29,1,"""","""","""","""","""",image-keyboard-response,11,114679,0.0-4.0-1.2,"""",null,scarcity/easy/scenario1.png,null,"""","""","""","""","""",2021-11-15 06:52:10,24.4.120.49,"Mozilla/5.0 (Macintosh; Intel Mac OS X 10_15_7) AppleWebKit/605.1.15 (KHTML, like Gecko) Version/15.1 Safari/605.1.15",Macintosh,Safari,15.1,OS X,10_15_7,fc80173b241c556346404f5d33b3977b,"""","""",EASY,"""",""""
29,1,"""","""","""","""","""",survey-multi-choice,12,120262,0.0-4.0-2.2,"""",5580,"""","{""Q0"":""Yes"",""Q1"":""Yes""}","""","""","""","""","""",2021-11-15 06:52:10,24.4.120.49,"Mozilla/5.0 (Macintosh; Intel Mac OS X 10_15_7) AppleWebKit/605.1.15 (KHTML, like Gecko) Version/15.1 Safari/605.1.15",Macintosh,Safari,15.1,OS X,10_15_7,fc80173b241c556346404f5d33b3977b,"""","""",EASY,"[0,1]",""""
29,1,"""","""","""","""","""",image-keyboard-response,13,121765,0.0-4.0-0.3,"""",null,img/fixation.png,null,"""",fixation,"""","""","""",2021-11-15 06:52:10,24.4.120.49,"Mozilla/5.0 (Macintosh; Intel Mac OS X 10_15_7) AppleWebKit/605.1.15 (KHTML, like Gecko) Version/15.1 Safari/605.1.15",Macintosh,Safari,15.1,OS X,10_15_7,fc80173b241c556346404f5d33b3977b,"""","""",EASY,"""",""""
29,1,"""","""","""","""","""",image-keyboard-response,14,151779,0.0-4.0-1.3,"""",null,scarcity/easy/scenario3.png,null,"""","""","""","""","""",2021-11-15 06:52:10,24.4.120.49,"Mozilla/5.0 (Macintosh; Intel Mac OS X 10_15_7) AppleWebKit/605.1.15 (KHTML, like Gecko) Version/15.1 Safari/605.1.15",Macintosh,Safari,15.1,OS X,10_15_7,fc80173b241c556346404f5d33b3977b,"""","""",EASY,"""",""""
29,1,"""","""","""","""","""",survey-multi-choice,15,168130,0.0-4.0-2.3,"""",16351,"""","{""Q0"":""Yes"",""Q1"":""Yes""}","""","""","""","""","""",2021-11-15 06:52:10,24.4.120.49,"Mozilla/5.0 (Macintosh; Intel Mac OS X 10_15_7) AppleWebKit/605.1.15 (KHTML, like Gecko) Version/15.1 Safari/605.1.15",Macintosh,Safari,15.1,OS X,10_15_7,fc80173b241c556346404f5d33b3977b,"""","""",EASY,"[0,1]",""""
29,1,"""","""","""","""","""",html-button-response,16,174048,0.0-5.0,"""",5915,"<p>You have finished reviewing each scenario!</p><p>We will now begin the cognitive experiment.<p><p>When you are ready to begin the cognitive game, please press START.</p>",0,"""","""","""","""","""",2021-11-15 06:52:10,24.4.120.49,"Mozilla/5.0 (Macintosh; Intel Mac OS X 10_15_7) AppleWebKit/605.1.15 (KHTML, like Gecko) Version/15.1 Safari/605.1.15",Macintosh,Safari,15.1,OS X,10_15_7,fc80173b241c556346404f5d33b3977b,"""","""",EASY,"""",""""
29,1,"""","""","""","""","""",instructions,17,196598,0.0-6.0-0.0,"""",20798,"""","""","[{""page_index"":0,""viewing_time"":2761},{""page_index"":1,""viewing_time"":706},{""page_index"":2,""viewing_time"":1131},{""page_index"":3,""viewing_time"":755},{""page_index"":4,""viewing_time"":6731},{""page_index"":5,""viewing_time"":6006},{""page_index"":6,""viewing_time"":2708}]","""","""","""","""",2021-11-15 06:52:10,24.4.120.49,"Mozilla/5.0 (Macintosh; Intel Mac OS X 10_15_7) AppleWebKit/605.1.15 (KHTML, like Gecko) Version/15.1 Safari/605.1.15",Macintosh,Safari,15.1,OS X,10_15_7,fc80173b241c556346404f5d33b3977b,"""","""",EASY,"""",""""
29,1,"""","""","""","""","""",image-button-response,18,198484,0.0-6.0-1.0,"""",1882,begin_practice.png,0,"""","""","""","""","""",2021-11-15 06:52:10,24.4.120.49,"Mozilla/5.0 (Macintosh; Intel Mac OS X 10_15_7) AppleWebKit/605.1.15 (KHTML, like Gecko) Version/15.1 Safari/605.1.15",Macintosh,Safari,15.1,OS X,10_15_7,fc80173b241c556346404f5d33b3977b,"""","""",EASY,"""",""""
29,1,"""","""","""","""","""",image-keyboard-response,19,201236,0.0-6.0-2.0-0.0,"""",null,img/fixation.png,null,"""",fixation,"""","""","""",2021-11-15 06:52:10,24.4.120.49,"Mozilla/5.0 (Macintosh; Intel Mac OS X 10_15_7) AppleWebKit/605.1.15 (KHTML, like Gecko) Version/15.1 Safari/605.1.15",Macintosh,Safari,15.1,OS X,10_15_7,fc80173b241c556346404f5d33b3977b,"""","""",EASY,"""",""""
29,1,"""","""","""","""","""",image-keyboard-response,20,201981,0.0-6.0-2.0-1.0,"""",731.0000000000291,img/flower_right.png,f,"""",practice,f,1,"""",2021-11-15 06:52:10,24.4.120.49,"Mozilla/5.0 (Macintosh; Intel Mac OS X 10_15_7) AppleWebKit/605.1.15 (KHTML, like Gecko) Version/15.1 Safari/605.1.15",Macintosh,Safari,15.1,OS X,10_15_7,fc80173b241c556346404f5d33b3977b,"""","""",EASY,"""",""""
29,1,"""","""","""","""","""",html-keyboard-response,21,202985,0.0-6.0-2.0-2.0,"""",null,CORRECT!,null,"""","""","""","""",feedback,2021-11-15 06:52:10,24.4.120.49,"Mozilla/5.0 (Macintosh; Intel Mac OS X 10_15_7) AppleWebKit/605.1.15 (KHTML, like Gecko) Version/15.1 Safari/605.1.15",Macintosh,Safari,15.1,OS X,10_15_7,fc80173b241c556346404f5d33b3977b,"""","""",EASY,"""",""""
29,1,"""","""","""","""","""",image-keyboard-response,22,203737,0.0-6.0-2.0-0.1,"""",null,img/fixation.png,null,"""",fixation,"""","""","""",2021-11-15 06:52:10,24.4.120.49,"Mozilla/5.0 (Macintosh; Intel Mac OS X 10_15_7) AppleWebKit/605.1.15 (KHTML, like Gecko) Version/15.1 Safari/605.1.15",Macintosh,Safari,15.1,OS X,10_15_7,fc80173b241c556346404f5d33b3977b,"""","""",EASY,"""",""""
29,1,"""","""","""","""","""",image-keyboard-response,23,204220,0.0-6.0-2.0-1.1,"""",481,img/flower_right.png,f,"""",practice,f,1,"""",2021-11-15 06:52:10,24.4.120.49,"Mozilla/5.0 (Macintosh; Intel Mac OS X 10_15_7) AppleWebKit/605.1.15 (KHTML, like Gecko) Version/15.1 Safari/605.1.15",Macintosh,Safari,15.1,OS X,10_15_7,fc80173b241c556346404f5d33b3977b,"""","""",EASY,"""",""""
29,1,"""","""","""","""","""",html-keyboard-response,24,205221,0.0-6.0-2.0-2.1,"""",null,CORRECT!,null,"""","""","""","""",feedback,2021-11-15 06:52:10,24.4.120.49,"Mozilla/5.0 (Macintosh; Intel Mac OS X 10_15_7) AppleWebKit/605.1.15 (KHTML, like Gecko) Version/15.1 Safari/605.1.15",Macintosh,Safari,15.1,OS X,10_15_7,fc80173b241c556346404f5d33b3977b,"""","""",EASY,"""",""""
29,1,"""","""","""","""","""",image-keyboard-response,25,206223,0.0-6.0-2.0-0.2,"""",null,img/fixation.png,null,"""",fixation,"""","""","""",2021-11-15 06:52:10,24.4.120.49,"Mozilla/5.0 (Macintosh; Intel Mac OS X 10_15_7) AppleWebKit/605.1.15 (KHTML, like Gecko) Version/15.1 Safari/605.1.15",Macintosh,Safari,15.1,OS X,10_15_7,fc80173b241c556346404f5d33b3977b,"""","""",EASY,"""",""""
29,1,"""","""","""","""","""",image-keyboard-response,26,207406,0.0-6.0-2.0-1.2,"""",1168.999999999971,img/heart_left.png,j,"""",practice,f,0,"""",2021-11-15 06:52:10,24.4.120.49,"Mozilla/5.0 (Macintosh; Intel Mac OS X 10_15_7) AppleWebKit/605.1.15 (KHTML, like Gecko) Version/15.1 Safari/605.1.15",Macintosh,Safari,15.1,OS X,10_15_7,fc80173b241c556346404f5d33b3977b,"""","""",EASY,"""",""""
29,1,"""","""","""","""","""",html-keyboard-response,27,208408,0.0-6.0-2.0-2.2,"""",null,INCORRECT!,null,"""","""","""","""",feedback,2021-11-15 06:52:10,24.4.120.49,"Mozilla/5.0 (Macintosh; Intel Mac OS X 10_15_7) AppleWebKit/605.1.15 (KHTML, like Gecko) Version/15.1 Safari/605.1.15",Macintosh,Safari,15.1,OS X,10_15_7,fc80173b241c556346404f5d33b3977b,"""","""",EASY,"""",""""
29,1,"""","""","""","""","""",image-keyboard-response,28,208661,0.0-6.0-2.0-0.3,"""",null,img/fixation.png,null,"""",fixation,"""","""","""",2021-11-15 06:52:10,24.4.120.49,"Mozilla/5.0 (Macintosh; Intel Mac OS X 10_15_7) AppleWebKit/605.1.15 (KHTML, like Gecko) Version/15.1 Safari/605.1.15",Macintosh,Safari,15.1,OS X,10_15_7,fc80173b241c556346404f5d33b3977b,"""","""",EASY,"""",""""
29,1,"""","""","""","""","""",image-keyboard-response,29,209212,0.0-6.0-2.0-1.3,"""",533,img/flower_left.png,j,"""",practice,j,1,"""",2021-11-15 06:52:10,24.4.120.49,"Mozilla/5.0 (Macintosh; Intel Mac OS X 10_15_7) AppleWebKit/605.1.15 (KHTML, like Gecko) Version/15.1 Safari/605.1.15",Macintosh,Safari,15.1,OS X,10_15_7,fc80173b241c556346404f5d33b3977b,"""","""",EASY,"""",""""
29,1,"""","""","""","""","""",html-keyboard-response,30,210214,0.0-6.0-2.0-2.3,"""",null,CORRECT!,null,"""","""","""","""",feedback,2021-11-15 06:52:10,24.4.120.49,"Mozilla/5.0 (Macintosh; Intel Mac OS X 10_15_7) AppleWebKit/605.1.15 (KHTML, like Gecko) Version/15.1 Safari/605.1.15",Macintosh,Safari,15.1,OS X,10_15_7,fc80173b241c556346404f5d33b3977b,"""","""",EASY,"""",""""
29,1,"""","""","""","""","""",image-keyboard-response,31,210716,0.0-6.0-2.0-0.4,"""",null,img/fixation.png,null,"""",fixation,"""","""","""",2021-11-15 06:52:10,24.4.120.49,"Mozilla/5.0 (Macintosh; Intel Mac OS X 10_15_7) AppleWebKit/605.1.15 (KHTML, like Gecko) Version/15.1 Safari/605.1.15",Macintosh,Safari,15.1,OS X,10_15_7,fc80173b241c556346404f5d33b3977b,"""","""",EASY,"""",""""
29,1,"""","""","""","""","""",image-keyboard-response,32,211318,0.0-6.0-2.0-1.4,"""",600,img/flower_right.png,f,"""",practice,f,1,"""",2021-11-15 06:52:10,24.4.120.49,"Mozilla/5.0 (Macintosh; Intel Mac OS X 10_15_7) AppleWebKit/605.1.15 (KHTML, like Gecko) Version/15.1 Safari/605.1.15",Macintosh,Safari,15.1,OS X,10_15_7,fc80173b241c556346404f5d33b3977b,"""","""",EASY,"""",""""
29,1,"""","""","""","""","""",html-keyboard-response,33,212319,0.0-6.0-2.0-2.4,"""",null,CORRECT!,null,"""","""","""","""",feedback,2021-11-15 06:52:10,24.4.120.49,"Mozilla/5.0 (Macintosh; Intel Mac OS X 10_15_7) AppleWebKit/605.1.15 (KHTML, like Gecko) Version/15.1 Safari/605.1.15",Macintosh,Safari,15.1,OS X,10_15_7,fc80173b241c556346404f5d33b3977b,"""","""",EASY,"""",""""
29,1,"""","""","""","""","""",image-keyboard-response,34,213071,0.0-6.0-2.0-0.5,"""",null,img/fixation.png,null,"""",fixation,"""","""","""",2021-11-15 06:52:10,24.4.120.49,"Mozilla/5.0 (Macintosh; Intel Mac OS X 10_15_7) AppleWebKit/605.1.15 (KHTML, like Gecko) Version/15.1 Safari/605.1.15",Macintosh,Safari,15.1,OS X,10_15_7,fc80173b241c556346404f5d33b3977b,"""","""",EASY,"""",""""
29,1,"""","""","""","""","""",image-keyboard-response,35,213751,0.0-6.0-2.0-1.5,"""",677,img/flower_right.png,f,"""",practice,f,1,"""",2021-11-15 06:52:10,24.4.120.49,"Mozilla/5.0 (Macintosh; Intel Mac OS X 10_15_7) AppleWebKit/605.1.15 (KHTML, like Gecko) Version/15.1 Safari/605.1.15",Macintosh,Safari,15.1,OS X,10_15_7,fc80173b241c556346404f5d33b3977b,"""","""",EASY,"""",""""
29,1,"""","""","""","""","""",html-keyboard-response,36,214752,0.0-6.0-2.0-2.5,"""",null,CORRECT!,null,"""","""","""","""",feedback,2021-11-15 06:52:10,24.4.120.49,"Mozilla/5.0 (Macintosh; Intel Mac OS X 10_15_7) AppleWebKit/605.1.15 (KHTML, like Gecko) Version/15.1 Safari/605.1.15",Macintosh,Safari,15.1,OS X,10_15_7,fc80173b241c556346404f5d33b3977b,"""","""",EASY,"""",""""
29,1,"""","""","""","""","""",image-keyboard-response,37,216754,0.0-6.0-2.0-0.6,"""",null,img/fixation.png,null,"""",fixation,"""","""","""",2021-11-15 06:52:10,24.4.120.49,"Mozilla/5.0 (Macintosh; Intel Mac OS X 10_15_7) AppleWebKit/605.1.15 (KHTML, like Gecko) Version/15.1 Safari/605.1.15",Macintosh,Safari,15.1,OS X,10_15_7,fc80173b241c556346404f5d33b3977b,"""","""",EASY,"""",""""
29,1,"""","""","""","""","""",image-keyboard-response,38,217249,0.0-6.0-2.0-1.6,"""",494,img/heart_left.png,f,"""",practice,f,1,"""",2021-11-15 06:52:10,24.4.120.49,"Mozilla/5.0 (Macintosh; Intel Mac OS X 10_15_7) AppleWebKit/605.1.15 (KHTML, like Gecko) Version/15.1 Safari/605.1.15",Macintosh,Safari,15.1,OS X,10_15_7,fc80173b241c556346404f5d33b3977b,"""","""",EASY,"""",""""
29,1,"""","""","""","""","""",html-keyboard-response,39,218250,0.0-6.0-2.0-2.6,"""",null,CORRECT!,null,"""","""","""","""",feedback,2021-11-15 06:52:10,24.4.120.49,"Mozilla/5.0 (Macintosh; Intel Mac OS X 10_15_7) AppleWebKit/605.1.15 (KHTML, like Gecko) Version/15.1 Safari/605.1.15",Macintosh,Safari,15.1,OS X,10_15_7,fc80173b241c556346404f5d33b3977b,"""","""",EASY,"""",""""
29,1,"""","""","""","""","""",image-keyboard-response,40,220004,0.0-6.0-2.0-0.7,"""",null,img/fixation.png,null,"""",fixation,"""","""","""",2021-11-15 06:52:10,24.4.120.49,"Mozilla/5.0 (Macintosh; Intel Mac OS X 10_15_7) AppleWebKit/605.1.15 (KHTML, like Gecko) Version/15.1 Safari/605.1.15",Macintosh,Safari,15.1,OS X,10_15_7,fc80173b241c556346404f5d33b3977b,"""","""",EASY,"""",""""
29,1,"""","""","""","""","""",image-keyboard-response,41,220422,0.0-6.0-2.0-1.7,"""",402,img/heart_right.png,j,"""",practice,j,1,"""",2021-11-15 06:52:10,24.4.120.49,"Mozilla/5.0 (Macintosh; Intel Mac OS X 10_15_7) AppleWebKit/605.1.15 (KHTML, like Gecko) Version/15.1 Safari/605.1.15",Macintosh,Safari,15.1,OS X,10_15_7,fc80173b241c556346404f5d33b3977b,"""","""",EASY,"""",""""
29,1,"""","""","""","""","""",html-keyboard-response,42,221424,0.0-6.0-2.0-2.7,"""",null,CORRECT!,null,"""","""","""","""",feedback,2021-11-15 06:52:10,24.4.120.49,"Mozilla/5.0 (Macintosh; Intel Mac OS X 10_15_7) AppleWebKit/605.1.15 (KHTML, like Gecko) Version/15.1 Safari/605.1.15",Macintosh,Safari,15.1,OS X,10_15_7,fc80173b241c556346404f5d33b3977b,"""","""",EASY,"""",""""
29,1,"""","""","""","""","""",image-keyboard-response,43,222676,0.0-6.0-2.0-0.8,"""",null,img/fixation.png,null,"""",fixation,"""","""","""",2021-11-15 06:52:10,24.4.120.49,"Mozilla/5.0 (Macintosh; Intel Mac OS X 10_15_7) AppleWebKit/605.1.15 (KHTML, like Gecko) Version/15.1 Safari/605.1.15",Macintosh,Safari,15.1,OS X,10_15_7,fc80173b241c556346404f5d33b3977b,"""","""",EASY,"""",""""
29,1,"""","""","""","""","""",image-keyboard-response,44,223227,0.0-6.0-2.0-1.8,"""",549,img/flower_right.png,f,"""",practice,f,1,"""",2021-11-15 06:52:10,24.4.120.49,"Mozilla/5.0 (Macintosh; Intel Mac OS X 10_15_7) AppleWebKit/605.1.15 (KHTML, like Gecko) Version/15.1 Safari/605.1.15",Macintosh,Safari,15.1,OS X,10_15_7,fc80173b241c556346404f5d33b3977b,"""","""",EASY,"""",""""
29,1,"""","""","""","""","""",html-keyboard-response,45,224228,0.0-6.0-2.0-2.8,"""",null,CORRECT!,null,"""","""","""","""",feedback,2021-11-15 06:52:10,24.4.120.49,"Mozilla/5.0 (Macintosh; Intel Mac OS X 10_15_7) AppleWebKit/605.1.15 (KHTML, like Gecko) Version/15.1 Safari/605.1.15",Macintosh,Safari,15.1,OS X,10_15_7,fc80173b241c556346404f5d33b3977b,"""","""",EASY,"""",""""
29,1,"""","""","""","""","""",image-keyboard-response,46,225980,0.0-6.0-2.0-0.9,"""",null,img/fixation.png,null,"""",fixation,"""","""","""",2021-11-15 06:52:10,24.4.120.49,"Mozilla/5.0 (Macintosh; Intel Mac OS X 10_15_7) AppleWebKit/605.1.15 (KHTML, like Gecko) Version/15.1 Safari/605.1.15",Macintosh,Safari,15.1,OS X,10_15_7,fc80173b241c556346404f5d33b3977b,"""","""",EASY,"""",""""
29,1,"""","""","""","""","""",image-keyboard-response,47,226398,0.0-6.0-2.0-1.9,"""",414,img/flower_left.png,j,"""",practice,j,1,"""",2021-11-15 06:52:10,24.4.120.49,"Mozilla/5.0 (Macintosh; Intel Mac OS X 10_15_7) AppleWebKit/605.1.15 (KHTML, like Gecko) Version/15.1 Safari/605.1.15",Macintosh,Safari,15.1,OS X,10_15_7,fc80173b241c556346404f5d33b3977b,"""","""",EASY,"""",""""
29,1,"""","""","""","""","""",html-keyboard-response,48,227400,0.0-6.0-2.0-2.9,"""",null,CORRECT!,null,"""","""","""","""",feedback,2021-11-15 06:52:10,24.4.120.49,"Mozilla/5.0 (Macintosh; Intel Mac OS X 10_15_7) AppleWebKit/605.1.15 (KHTML, like Gecko) Version/15.1 Safari/605.1.15",Macintosh,Safari,15.1,OS X,10_15_7,fc80173b241c556346404f5d33b3977b,"""","""",EASY,"""",""""
29,1,"""","""","""","""","""",image-button-response,49,236472,0.0-6.0-3.0-0.0,"""",9071,repeat_instructions.png,0,"""","""","""","""","""",2021-11-15 06:52:10,24.4.120.49,"Mozilla/5.0 (Macintosh; Intel Mac OS X 10_15_7) AppleWebKit/605.1.15 (KHTML, like Gecko) Version/15.1 Safari/605.1.15",Macintosh,Safari,15.1,OS X,10_15_7,fc80173b241c556346404f5d33b3977b,"""","""",EASY,"""",""""
29,1,"""","""","""","""","""",instructions,50,239854,0.0-6.1-0.1,"""",3376.000000000029,"""","""","[{""page_index"":0,""viewing_time"":910},{""page_index"":1,""viewing_time"":472.0000000000291},{""page_index"":2,""viewing_time"":421.9999999999709},{""page_index"":3,""viewing_time"":339},{""page_index"":4,""viewing_time"":371},{""page_index"":5,""viewing_time"":391},{""page_index"":6,""viewing_time"":471.0000000000291}]","""","""","""","""",2021-11-15 06:52:10,24.4.120.49,"Mozilla/5.0 (Macintosh; Intel Mac OS X 10_15_7) AppleWebKit/605.1.15 (KHTML, like Gecko) Version/15.1 Safari/605.1.15",Macintosh,Safari,15.1,OS X,10_15_7,fc80173b241c556346404f5d33b3977b,"""","""",EASY,"""",""""
29,1,"""","""","""","""","""",image-button-response,51,240766,0.0-6.1-1.1,"""",896,begin_practice.png,0,"""","""","""","""","""",2021-11-15 06:52:10,24.4.120.49,"Mozilla/5.0 (Macintosh; Intel Mac OS X 10_15_7) AppleWebKit/605.1.15 (KHTML, like Gecko) Version/15.1 Safari/605.1.15",Macintosh,Safari,15.1,OS X,10_15_7,fc80173b241c556346404f5d33b3977b,"""","""",EASY,"""",""""
29,1,"""","""","""","""","""",image-keyboard-response,52,243519,0.0-6.1-2.1-0.10,"""",null,img/fixation.png,null,"""",fixation,"""","""","""",2021-11-15 06:52:10,24.4.120.49,"Mozilla/5.0 (Macintosh; Intel Mac OS X 10_15_7) AppleWebKit/605.1.15 (KHTML, like Gecko) Version/15.1 Safari/605.1.15",Macintosh,Safari,15.1,OS X,10_15_7,fc80173b241c556346404f5d33b3977b,"""","""",EASY,"""",""""
29,1,"""","""","""","""","""",image-keyboard-response,53,244361,0.0-6.1-2.1-1.10,"""",839,img/flower_left.png,f,"""",practice,j,0,"""",2021-11-15 06:52:10,24.4.120.49,"Mozilla/5.0 (Macintosh; Intel Mac OS X 10_15_7) AppleWebKit/605.1.15 (KHTML, like Gecko) Version/15.1 Safari/605.1.15",Macintosh,Safari,15.1,OS X,10_15_7,fc80173b241c556346404f5d33b3977b,"""","""",EASY,"""",""""
29,1,"""","""","""","""","""",html-keyboard-response,54,245362,0.0-6.1-2.1-2.10,"""",null,INCORRECT!,null,"""","""","""","""",feedback,2021-11-15 06:52:10,24.4.120.49,"Mozilla/5.0 (Macintosh; Intel Mac OS X 10_15_7) AppleWebKit/605.1.15 (KHTML, like Gecko) Version/15.1 Safari/605.1.15",Macintosh,Safari,15.1,OS X,10_15_7,fc80173b241c556346404f5d33b3977b,"""","""",EASY,"""",""""
29,1,"""","""","""","""","""",image-keyboard-response,55,246615,0.0-6.1-2.1-0.11,"""",null,img/fixation.png,null,"""",fixation,"""","""","""",2021-11-15 06:52:10,24.4.120.49,"Mozilla/5.0 (Macintosh; Intel Mac OS X 10_15_7) AppleWebKit/605.1.15 (KHTML, like Gecko) Version/15.1 Safari/605.1.15",Macintosh,Safari,15.1,OS X,10_15_7,fc80173b241c556346404f5d33b3977b,"""","""",EASY,"""",""""
29,1,"""","""","""","""","""",image-keyboard-response,56,247399,0.0-6.1-2.1-1.11,"""",783.9999999999709,img/flower_left.png,f,"""",practice,j,0,"""",2021-11-15 06:52:10,24.4.120.49,"Mozilla/5.0 (Macintosh; Intel Mac OS X 10_15_7) AppleWebKit/605.1.15 (KHTML, like Gecko) Version/15.1 Safari/605.1.15",Macintosh,Safari,15.1,OS X,10_15_7,fc80173b241c556346404f5d33b3977b,"""","""",EASY,"""",""""
29,1,"""","""","""","""","""",html-keyboard-response,57,248401,0.0-6.1-2.1-2.11,"""",null,INCORRECT!,null,"""","""","""","""",feedback,2021-11-15 06:52:10,24.4.120.49,"Mozilla/5.0 (Macintosh; Intel Mac OS X 10_15_7) AppleWebKit/605.1.15 (KHTML, like Gecko) Version/15.1 Safari/605.1.15",Macintosh,Safari,15.1,OS X,10_15_7,fc80173b241c556346404f5d33b3977b,"""","""",EASY,"""",""""
29,1,"""","""","""","""","""",image-keyboard-response,58,249903,0.0-6.1-2.1-0.12,"""",null,img/fixation.png,null,"""",fixation,"""","""","""",2021-11-15 06:52:10,24.4.120.49,"Mozilla/5.0 (Macintosh; Intel Mac OS X 10_15_7) AppleWebKit/605.1.15 (KHTML, like Gecko) Version/15.1 Safari/605.1.15",Macintosh,Safari,15.1,OS X,10_15_7,fc80173b241c556346404f5d33b3977b,"""","""",EASY,"""",""""
29,1,"""","""","""","""","""",image-keyboard-response,59,250489,0.0-6.1-2.1-1.12,"""",583,img/heart_left.png,f,"""",practice,f,1,"""",2021-11-15 06:52:10,24.4.120.49,"Mozilla/5.0 (Macintosh; Intel Mac OS X 10_15_7) AppleWebKit/605.1.15 (KHTML, like Gecko) Version/15.1 Safari/605.1.15",Macintosh,Safari,15.1,OS X,10_15_7,fc80173b241c556346404f5d33b3977b,"""","""",EASY,"""",""""
29,1,"""","""","""","""","""",html-keyboard-response,60,251491,0.0-6.1-2.1-2.12,"""",null,CORRECT!,null,"""","""","""","""",feedback,2021-11-15 06:52:10,24.4.120.49,"Mozilla/5.0 (Macintosh; Intel Mac OS X 10_15_7) AppleWebKit/605.1.15 (KHTML, like Gecko) Version/15.1 Safari/605.1.15",Macintosh,Safari,15.1,OS X,10_15_7,fc80173b241c556346404f5d33b3977b,"""","""",EASY,"""",""""
29,1,"""","""","""","""","""",image-keyboard-response,61,253492,0.0-6.1-2.1-0.13,"""",null,img/fixation.png,null,"""",fixation,"""","""","""",2021-11-15 06:52:10,24.4.120.49,"Mozilla/5.0 (Macintosh; Intel Mac OS X 10_15_7) AppleWebKit/605.1.15 (KHTML, like Gecko) Version/15.1 Safari/605.1.15",Macintosh,Safari,15.1,OS X,10_15_7,fc80173b241c556346404f5d33b3977b,"""","""",EASY,"""",""""
29,1,"""","""","""","""","""",image-keyboard-response,62,254249,0.0-6.1-2.1-1.13,"""",755,img/flower_left.png,f,"""",practice,j,0,"""",2021-11-15 06:52:10,24.4.120.49,"Mozilla/5.0 (Macintosh; Intel Mac OS X 10_15_7) AppleWebKit/605.1.15 (KHTML, like Gecko) Version/15.1 Safari/605.1.15",Macintosh,Safari,15.1,OS X,10_15_7,fc80173b241c556346404f5d33b3977b,"""","""",EASY,"""",""""
29,1,"""","""","""","""","""",html-keyboard-response,63,255250,0.0-6.1-2.1-2.13,"""",null,INCORRECT!,null,"""","""","""","""",feedback,2021-11-15 06:52:10,24.4.120.49,"Mozilla/5.0 (Macintosh; Intel Mac OS X 10_15_7) AppleWebKit/605.1.15 (KHTML, like Gecko) Version/15.1 Safari/605.1.15",Macintosh,Safari,15.1,OS X,10_15_7,fc80173b241c556346404f5d33b3977b,"""","""",EASY,"""",""""
29,1,"""","""","""","""","""",image-keyboard-response,64,256754,0.0-6.1-2.1-0.14,"""",null,img/fixation.png,null,"""",fixation,"""","""","""",2021-11-15 06:52:10,24.4.120.49,"Mozilla/5.0 (Macintosh; Intel Mac OS X 10_15_7) AppleWebKit/605.1.15 (KHTML, like Gecko) Version/15.1 Safari/605.1.15",Macintosh,Safari,15.1,OS X,10_15_7,fc80173b241c556346404f5d33b3977b,"""","""",EASY,"""",""""
29,1,"""","""","""","""","""",image-keyboard-response,65,257344,0.0-6.1-2.1-1.14,"""",589,img/heart_right.png,j,"""",practice,j,1,"""",2021-11-15 06:52:10,24.4.120.49,"Mozilla/5.0 (Macintosh; Intel Mac OS X 10_15_7) AppleWebKit/605.1.15 (KHTML, like Gecko) Version/15.1 Safari/605.1.15",Macintosh,Safari,15.1,OS X,10_15_7,fc80173b241c556346404f5d33b3977b,"""","""",EASY,"""",""""
29,1,"""","""","""","""","""",html-keyboard-response,66,258346,0.0-6.1-2.1-2.14,"""",null,CORRECT!,null,"""","""","""","""",feedback,2021-11-15 06:52:10,24.4.120.49,"Mozilla/5.0 (Macintosh; Intel Mac OS X 10_15_7) AppleWebKit/605.1.15 (KHTML, like Gecko) Version/15.1 Safari/605.1.15",Macintosh,Safari,15.1,OS X,10_15_7,fc80173b241c556346404f5d33b3977b,"""","""",EASY,"""",""""
29,1,"""","""","""","""","""",image-keyboard-response,67,259848,0.0-6.1-2.1-0.15,"""",null,img/fixation.png,null,"""",fixation,"""","""","""",2021-11-15 06:52:10,24.4.120.49,"Mozilla/5.0 (Macintosh; Intel Mac OS X 10_15_7) AppleWebKit/605.1.15 (KHTML, like Gecko) Version/15.1 Safari/605.1.15",Macintosh,Safari,15.1,OS X,10_15_7,fc80173b241c556346404f5d33b3977b,"""","""",EASY,"""",""""
29,1,"""","""","""","""","""",image-keyboard-response,68,260431,0.0-6.1-2.1-1.15,"""",582,img/flower_right.png,f,"""",practice,f,1,"""",2021-11-15 06:52:10,24.4.120.49,"Mozilla/5.0 (Macintosh; Intel Mac OS X 10_15_7) AppleWebKit/605.1.15 (KHTML, like Gecko) Version/15.1 Safari/605.1.15",Macintosh,Safari,15.1,OS X,10_15_7,fc80173b241c556346404f5d33b3977b,"""","""",EASY,"""",""""
29,1,"""","""","""","""","""",html-keyboard-response,69,261433,0.0-6.1-2.1-2.15,"""",null,CORRECT!,null,"""","""","""","""",feedback,2021-11-15 06:52:10,24.4.120.49,"Mozilla/5.0 (Macintosh; Intel Mac OS X 10_15_7) AppleWebKit/605.1.15 (KHTML, like Gecko) Version/15.1 Safari/605.1.15",Macintosh,Safari,15.1,OS X,10_15_7,fc80173b241c556346404f5d33b3977b,"""","""",EASY,"""",""""
