run_id,condition,success,trial_type,trial_index,time_elapsed,internal_node_id,subject_id,study_id,session_id,condition,timeout,failed_images,failed_audio,failed_video,rt,stimulus,response,task,question_order,view_history,correct_response,accuracy,screen_id,block,recorded_at,ip,user_agent,device,browser,browser_version,platform,platform_version,source_code_version
25,1,TRUE,fullscreen,0,2170,0.0-0.0,,,,EASY,,,,,,,,,,,,,,,2021-11-14 23:31:30,24.4.120.49,"Mozilla/5.0 (Macintosh; Intel Mac OS X 10_15_7) AppleWebKit/605.1.15 (KHTML, like Gecko) Version/15.1 Safari/605.1.15",Macintosh,Safari,15.1,OS X,10_15_7,69aac57e16ab92fbf4ebb6c052416712
25,1,TRUE,preload,1,3455,0.0-1.0,,,,EASY,FALSE,[],[],[],,,,,,,,,,,2021-11-14 23:31:30,24.4.120.49,"Mozilla/5.0 (Macintosh; Intel Mac OS X 10_15_7) AppleWebKit/605.1.15 (KHTML, like Gecko) Version/15.1 Safari/605.1.15",Macintosh,Safari,15.1,OS X,10_15_7,69aac57e16ab92fbf4ebb6c052416712
25,1,,html-button-response,2,5000,0.0-2.0,,,,EASY,,,,,1544,<p>Welcome! Thank you so much for participating in this study. Press START to begin.</p><br>,0,,,,,,,,2021-11-14 23:31:30,24.4.120.49,"Mozilla/5.0 (Macintosh; Intel Mac OS X 10_15_7) AppleWebKit/605.1.15 (KHTML, like Gecko) Version/15.1 Safari/605.1.15",Macintosh,Safari,15.1,OS X,10_15_7,69aac57e16ab92fbf4ebb6c052416712
25,1,,html-button-response,3,8766,0.0-3.0,,,,EASY,,,,,3765.000000000000,"<p>First, you will review a series of hypothetical scenarios each related to finances</p><br><p>Please think about each scenario carefully for approximately <strong>one minute</strong>.</p><br><p>Please reflect and process the scenario as if it were actually happening. Questions will be there to help guide your thinking.</p><p>When you are ready to begin, please press REVIEW to begin the study.",0,,,,,,,,2021-11-14 23:31:30,24.4.120.49,"Mozilla/5.0 (Macintosh; Intel Mac OS X 10_15_7) AppleWebKit/605.1.15 (KHTML, like Gecko) Version/15.1 Safari/605.1.15",Macintosh,Safari,15.1,OS X,10_15_7,69aac57e16ab92fbf4ebb6c052416712
25,1,,image-keyboard-response,4,10785,0.0-4.0-0.0,,,,EASY,,,,,null,img/fixation.png,null,fixation,,,,,,,2021-11-14 23:31:30,24.4.120.49,"Mozilla/5.0 (Macintosh; Intel Mac OS X 10_15_7) AppleWebKit/605.1.15 (KHTML, like Gecko) Version/15.1 Safari/605.1.15",Macintosh,Safari,15.1,OS X,10_15_7,69aac57e16ab92fbf4ebb6c052416712
25,1,,image-keyboard-response,5,40802,0.0-4.0-1.0,,,,EASY,,,,,null,scarcity/easy/scenario1.png,null,,,,,,,,2021-11-14 23:31:30,24.4.120.49,"Mozilla/5.0 (Macintosh; Intel Mac OS X 10_15_7) AppleWebKit/605.1.15 (KHTML, like Gecko) Version/15.1 Safari/605.1.15",Macintosh,Safari,15.1,OS X,10_15_7,69aac57e16ab92fbf4ebb6c052416712
25,1,,survey-multi-choice,6,46737,0.0-4.0-2.0,,,,EASY,,,,,5930,,"{""Q0"":""Yes"",""Q1"":""Yes""}",,"[0,1]",,,,,,2021-11-14 23:31:30,24.4.120.49,"Mozilla/5.0 (Macintosh; Intel Mac OS X 10_15_7) AppleWebKit/605.1.15 (KHTML, like Gecko) Version/15.1 Safari/605.1.15",Macintosh,Safari,15.1,OS X,10_15_7,69aac57e16ab92fbf4ebb6c052416712
25,1,,image-keyboard-response,7,47240,0.0-4.0-0.1,,,,EASY,,,,,null,img/fixation.png,null,fixation,,,,,,,2021-11-14 23:31:30,24.4.120.49,"Mozilla/5.0 (Macintosh; Intel Mac OS X 10_15_7) AppleWebKit/605.1.15 (KHTML, like Gecko) Version/15.1 Safari/605.1.15",Macintosh,Safari,15.1,OS X,10_15_7,69aac57e16ab92fbf4ebb6c052416712
25,1,,image-keyboard-response,8,77259,0.0-4.0-1.1,,,,EASY,,,,,null,scarcity/easy/scenario4.png,null,,,,,,,,2021-11-14 23:31:30,24.4.120.49,"Mozilla/5.0 (Macintosh; Intel Mac OS X 10_15_7) AppleWebKit/605.1.15 (KHTML, like Gecko) Version/15.1 Safari/605.1.15",Macintosh,Safari,15.1,OS X,10_15_7,69aac57e16ab92fbf4ebb6c052416712
25,1,,survey-multi-choice,9,83955,0.0-4.0-2.1,,,,EASY,,,,,6696,,"{""Q0"":""No"",""Q1"":""Yes""}",,"[0,1]",,,,,,2021-11-14 23:31:30,24.4.120.49,"Mozilla/5.0 (Macintosh; Intel Mac OS X 10_15_7) AppleWebKit/605.1.15 (KHTML, like Gecko) Version/15.1 Safari/605.1.15",Macintosh,Safari,15.1,OS X,10_15_7,69aac57e16ab92fbf4ebb6c052416712
25,1,,image-keyboard-response,10,84460,0.0-4.0-0.2,,,,EASY,,,,,null,img/fixation.png,null,fixation,,,,,,,2021-11-14 23:31:30,24.4.120.49,"Mozilla/5.0 (Macintosh; Intel Mac OS X 10_15_7) AppleWebKit/605.1.15 (KHTML, like Gecko) Version/15.1 Safari/605.1.15",Macintosh,Safari,15.1,OS X,10_15_7,69aac57e16ab92fbf4ebb6c052416712
25,1,,image-keyboard-response,11,114478,0.0-4.0-1.2,,,,EASY,,,,,null,scarcity/easy/scenario2.png,null,,,,,,,,2021-11-14 23:31:30,24.4.120.49,"Mozilla/5.0 (Macintosh; Intel Mac OS X 10_15_7) AppleWebKit/605.1.15 (KHTML, like Gecko) Version/15.1 Safari/605.1.15",Macintosh,Safari,15.1,OS X,10_15_7,69aac57e16ab92fbf4ebb6c052416712
25,1,,survey-multi-choice,12,122090,0.0-4.0-2.2,,,,EASY,,,,,7609,,"{""Q0"":""Yes"",""Q1"":""Yes""}",,"[0,1]",,,,,,2021-11-14 23:31:30,24.4.120.49,"Mozilla/5.0 (Macintosh; Intel Mac OS X 10_15_7) AppleWebKit/605.1.15 (KHTML, like Gecko) Version/15.1 Safari/605.1.15",Macintosh,Safari,15.1,OS X,10_15_7,69aac57e16ab92fbf4ebb6c052416712
25,1,,image-keyboard-response,13,123343,0.0-4.0-0.3,,,,EASY,,,,,null,img/fixation.png,null,fixation,,,,,,,2021-11-14 23:31:30,24.4.120.49,"Mozilla/5.0 (Macintosh; Intel Mac OS X 10_15_7) AppleWebKit/605.1.15 (KHTML, like Gecko) Version/15.1 Safari/605.1.15",Macintosh,Safari,15.1,OS X,10_15_7,69aac57e16ab92fbf4ebb6c052416712
25,1,,image-keyboard-response,14,153362,0.0-4.0-1.3,,,,EASY,,,,,null,scarcity/easy/scenario3.png,null,,,,,,,,2021-11-14 23:31:30,24.4.120.49,"Mozilla/5.0 (Macintosh; Intel Mac OS X 10_15_7) AppleWebKit/605.1.15 (KHTML, like Gecko) Version/15.1 Safari/605.1.15",Macintosh,Safari,15.1,OS X,10_15_7,69aac57e16ab92fbf4ebb6c052416712
25,1,,survey-multi-choice,15,171360,0.0-4.0-2.3,,,,EASY,,,,,17996,,"{""Q0"":""Yes"",""Q1"":""No""}",,"[0,1]",,,,,,2021-11-14 23:31:30,24.4.120.49,"Mozilla/5.0 (Macintosh; Intel Mac OS X 10_15_7) AppleWebKit/605.1.15 (KHTML, like Gecko) Version/15.1 Safari/605.1.15",Macintosh,Safari,15.1,OS X,10_15_7,69aac57e16ab92fbf4ebb6c052416712
25,1,,html-button-response,16,173875,0.0-5.0,,,,EASY,,,,,2511,"<p>You have finished reviewing each scenario!</p><p>We will now begin the cognitive experiment.<p><p>When you are ready to begin the cognitive game, please press START.</p>",0,,,,,,,,2021-11-14 23:31:30,24.4.120.49,"Mozilla/5.0 (Macintosh; Intel Mac OS X 10_15_7) AppleWebKit/605.1.15 (KHTML, like Gecko) Version/15.1 Safari/605.1.15",Macintosh,Safari,15.1,OS X,10_15_7,69aac57e16ab92fbf4ebb6c052416712
25,1,,instructions,17,188842,0.0-6.0-0.0,,,,EASY,,,,,13215.00000000000,,,,,"[{""page_index"":0,""viewing_time"":1881},{""page_index"":1,""viewing_time"":1649},{""page_index"":2,""viewing_time"":2651},{""page_index"":3,""viewing_time"":1066},{""page_index"":4,""viewing_time"":1366},{""page_index"":5,""viewing_time"":3067},{""page_index"":6,""viewing_time"":1535.000000000029}]",,,,,2021-11-14 23:31:30,24.4.120.49,"Mozilla/5.0 (Macintosh; Intel Mac OS X 10_15_7) AppleWebKit/605.1.15 (KHTML, like Gecko) Version/15.1 Safari/605.1.15",Macintosh,Safari,15.1,OS X,10_15_7,69aac57e16ab92fbf4ebb6c052416712
25,1,,image-button-response,18,190359,0.0-6.0-1.0,,,,EASY,,,,,1514,begin_practice.png,0,,,,,,,,2021-11-14 23:31:30,24.4.120.49,"Mozilla/5.0 (Macintosh; Intel Mac OS X 10_15_7) AppleWebKit/605.1.15 (KHTML, like Gecko) Version/15.1 Safari/605.1.15",Macintosh,Safari,15.1,OS X,10_15_7,69aac57e16ab92fbf4ebb6c052416712
25,1,,image-keyboard-response,19,194362,0.0-6.0-2.0-0.0,,,,EASY,,,,,null,img/fixation.png,null,fixation,,,,,,,2021-11-14 23:31:30,24.4.120.49,"Mozilla/5.0 (Macintosh; Intel Mac OS X 10_15_7) AppleWebKit/605.1.15 (KHTML, like Gecko) Version/15.1 Safari/605.1.15",Macintosh,Safari,15.1,OS X,10_15_7,69aac57e16ab92fbf4ebb6c052416712
25,1,,image-keyboard-response,20,195372,0.0-6.0-2.0-1.0,,,,EASY,,,,,994,img/heart_left.png,f,practice,,,f,1,,,2021-11-14 23:31:30,24.4.120.49,"Mozilla/5.0 (Macintosh; Intel Mac OS X 10_15_7) AppleWebKit/605.1.15 (KHTML, like Gecko) Version/15.1 Safari/605.1.15",Macintosh,Safari,15.1,OS X,10_15_7,69aac57e16ab92fbf4ebb6c052416712
25,1,,html-keyboard-response,21,196375,0.0-6.0-2.0-2.0,,,,EASY,,,,,null,CORRECT!,null,,,,,,feedback,,2021-11-14 23:31:30,24.4.120.49,"Mozilla/5.0 (Macintosh; Intel Mac OS X 10_15_7) AppleWebKit/605.1.15 (KHTML, like Gecko) Version/15.1 Safari/605.1.15",Macintosh,Safari,15.1,OS X,10_15_7,69aac57e16ab92fbf4ebb6c052416712
25,1,,image-keyboard-response,22,198382,0.0-6.0-2.0-0.1,,,,EASY,,,,,null,img/fixation.png,null,fixation,,,,,,,2021-11-14 23:31:30,24.4.120.49,"Mozilla/5.0 (Macintosh; Intel Mac OS X 10_15_7) AppleWebKit/605.1.15 (KHTML, like Gecko) Version/15.1 Safari/605.1.15",Macintosh,Safari,15.1,OS X,10_15_7,69aac57e16ab92fbf4ebb6c052416712
25,1,,image-keyboard-response,23,198932,0.0-6.0-2.0-1.1,,,,EASY,,,,,536.0000000000290,img/flower_left.png,j,practice,,,j,1,,,2021-11-14 23:31:30,24.4.120.49,"Mozilla/5.0 (Macintosh; Intel Mac OS X 10_15_7) AppleWebKit/605.1.15 (KHTML, like Gecko) Version/15.1 Safari/605.1.15",Macintosh,Safari,15.1,OS X,10_15_7,69aac57e16ab92fbf4ebb6c052416712
25,1,,html-keyboard-response,24,199934,0.0-6.0-2.0-2.1,,,,EASY,,,,,null,CORRECT!,null,,,,,,feedback,,2021-11-14 23:31:30,24.4.120.49,"Mozilla/5.0 (Macintosh; Intel Mac OS X 10_15_7) AppleWebKit/605.1.15 (KHTML, like Gecko) Version/15.1 Safari/605.1.15",Macintosh,Safari,15.1,OS X,10_15_7,69aac57e16ab92fbf4ebb6c052416712
25,1,,image-keyboard-response,25,200189,0.0-6.0-2.0-0.2,,,,EASY,,,,,null,img/fixation.png,null,fixation,,,,,,,2021-11-14 23:31:30,24.4.120.49,"Mozilla/5.0 (Macintosh; Intel Mac OS X 10_15_7) AppleWebKit/605.1.15 (KHTML, like Gecko) Version/15.1 Safari/605.1.15",Macintosh,Safari,15.1,OS X,10_15_7,69aac57e16ab92fbf4ebb6c052416712
25,1,,image-keyboard-response,26,200773,0.0-6.0-2.0-1.2,,,,EASY,,,,,570,img/flower_right.png,f,practice,,,f,1,,,2021-11-14 23:31:30,24.4.120.49,"Mozilla/5.0 (Macintosh; Intel Mac OS X 10_15_7) AppleWebKit/605.1.15 (KHTML, like Gecko) Version/15.1 Safari/605.1.15",Macintosh,Safari,15.1,OS X,10_15_7,69aac57e16ab92fbf4ebb6c052416712
25,1,,html-keyboard-response,27,201775,0.0-6.0-2.0-2.2,,,,EASY,,,,,null,CORRECT!,null,,,,,,feedback,,2021-11-14 23:31:30,24.4.120.49,"Mozilla/5.0 (Macintosh; Intel Mac OS X 10_15_7) AppleWebKit/605.1.15 (KHTML, like Gecko) Version/15.1 Safari/605.1.15",Macintosh,Safari,15.1,OS X,10_15_7,69aac57e16ab92fbf4ebb6c052416712
25,1,,image-keyboard-response,28,203527,0.0-6.0-2.0-0.3,,,,EASY,,,,,null,img/fixation.png,null,fixation,,,,,,,2021-11-14 23:31:30,24.4.120.49,"Mozilla/5.0 (Macintosh; Intel Mac OS X 10_15_7) AppleWebKit/605.1.15 (KHTML, like Gecko) Version/15.1 Safari/605.1.15",Macintosh,Safari,15.1,OS X,10_15_7,69aac57e16ab92fbf4ebb6c052416712
25,1,,image-keyboard-response,29,204054,0.0-6.0-2.0-1.3,,,,EASY,,,,,525,img/heart_left.png,f,practice,,,f,1,,,2021-11-14 23:31:30,24.4.120.49,"Mozilla/5.0 (Macintosh; Intel Mac OS X 10_15_7) AppleWebKit/605.1.15 (KHTML, like Gecko) Version/15.1 Safari/605.1.15",Macintosh,Safari,15.1,OS X,10_15_7,69aac57e16ab92fbf4ebb6c052416712
25,1,,html-keyboard-response,30,205055,0.0-6.0-2.0-2.3,,,,EASY,,,,,null,CORRECT!,null,,,,,,feedback,,2021-11-14 23:31:30,24.4.120.49,"Mozilla/5.0 (Macintosh; Intel Mac OS X 10_15_7) AppleWebKit/605.1.15 (KHTML, like Gecko) Version/15.1 Safari/605.1.15",Macintosh,Safari,15.1,OS X,10_15_7,69aac57e16ab92fbf4ebb6c052416712
25,1,,image-keyboard-response,31,206057,0.0-6.0-2.0-0.4,,,,EASY,,,,,null,img/fixation.png,null,fixation,,,,,,,2021-11-14 23:31:30,24.4.120.49,"Mozilla/5.0 (Macintosh; Intel Mac OS X 10_15_7) AppleWebKit/605.1.15 (KHTML, like Gecko) Version/15.1 Safari/605.1.15",Macintosh,Safari,15.1,OS X,10_15_7,69aac57e16ab92fbf4ebb6c052416712
25,1,,image-keyboard-response,32,206756,0.0-6.0-2.0-1.4,,,,EASY,,,,,692,img/flower_left.png,j,practice,,,j,1,,,2021-11-14 23:31:30,24.4.120.49,"Mozilla/5.0 (Macintosh; Intel Mac OS X 10_15_7) AppleWebKit/605.1.15 (KHTML, like Gecko) Version/15.1 Safari/605.1.15",Macintosh,Safari,15.1,OS X,10_15_7,69aac57e16ab92fbf4ebb6c052416712
25,1,,html-keyboard-response,33,207758,0.0-6.0-2.0-2.4,,,,EASY,,,,,null,CORRECT!,null,,,,,,feedback,,2021-11-14 23:31:30,24.4.120.49,"Mozilla/5.0 (Macintosh; Intel Mac OS X 10_15_7) AppleWebKit/605.1.15 (KHTML, like Gecko) Version/15.1 Safari/605.1.15",Macintosh,Safari,15.1,OS X,10_15_7,69aac57e16ab92fbf4ebb6c052416712
25,1,,image-keyboard-response,34,208262,0.0-6.0-2.0-0.5,,,,EASY,,,,,null,img/fixation.png,null,fixation,,,,,,,2021-11-14 23:31:30,24.4.120.49,"Mozilla/5.0 (Macintosh; Intel Mac OS X 10_15_7) AppleWebKit/605.1.15 (KHTML, like Gecko) Version/15.1 Safari/605.1.15",Macintosh,Safari,15.1,OS X,10_15_7,69aac57e16ab92fbf4ebb6c052416712
25,1,,image-keyboard-response,35,208863,0.0-6.0-2.0-1.5,,,,EASY,,,,,600,img/flower_right.png,f,practice,,,f,1,,,2021-11-14 23:31:30,24.4.120.49,"Mozilla/5.0 (Macintosh; Intel Mac OS X 10_15_7) AppleWebKit/605.1.15 (KHTML, like Gecko) Version/15.1 Safari/605.1.15",Macintosh,Safari,15.1,OS X,10_15_7,69aac57e16ab92fbf4ebb6c052416712
25,1,,html-keyboard-response,36,209864,0.0-6.0-2.0-2.5,,,,EASY,,,,,null,CORRECT!,null,,,,,,feedback,,2021-11-14 23:31:30,24.4.120.49,"Mozilla/5.0 (Macintosh; Intel Mac OS X 10_15_7) AppleWebKit/605.1.15 (KHTML, like Gecko) Version/15.1 Safari/605.1.15",Macintosh,Safari,15.1,OS X,10_15_7,69aac57e16ab92fbf4ebb6c052416712
25,1,,image-keyboard-response,37,210366,0.0-6.0-2.0-0.6,,,,EASY,,,,,null,img/fixation.png,null,fixation,,,,,,,2021-11-14 23:31:30,24.4.120.49,"Mozilla/5.0 (Macintosh; Intel Mac OS X 10_15_7) AppleWebKit/605.1.15 (KHTML, like Gecko) Version/15.1 Safari/605.1.15",Macintosh,Safari,15.1,OS X,10_15_7,69aac57e16ab92fbf4ebb6c052416712
25,1,,image-keyboard-response,38,211030,0.0-6.0-2.0-1.6,,,,EASY,,,,,662.9999999999710,img/flower_right.png,f,practice,,,f,1,,,2021-11-14 23:31:30,24.4.120.49,"Mozilla/5.0 (Macintosh; Intel Mac OS X 10_15_7) AppleWebKit/605.1.15 (KHTML, like Gecko) Version/15.1 Safari/605.1.15",Macintosh,Safari,15.1,OS X,10_15_7,69aac57e16ab92fbf4ebb6c052416712
25,1,,html-keyboard-response,39,212032,0.0-6.0-2.0-2.6,,,,EASY,,,,,null,CORRECT!,null,,,,,,feedback,,2021-11-14 23:31:30,24.4.120.49,"Mozilla/5.0 (Macintosh; Intel Mac OS X 10_15_7) AppleWebKit/605.1.15 (KHTML, like Gecko) Version/15.1 Safari/605.1.15",Macintosh,Safari,15.1,OS X,10_15_7,69aac57e16ab92fbf4ebb6c052416712
25,1,,image-keyboard-response,40,212287,0.0-6.0-2.0-0.7,,,,EASY,,,,,null,img/fixation.png,null,fixation,,,,,,,2021-11-14 23:31:30,24.4.120.49,"Mozilla/5.0 (Macintosh; Intel Mac OS X 10_15_7) AppleWebKit/605.1.15 (KHTML, like Gecko) Version/15.1 Safari/605.1.15",Macintosh,Safari,15.1,OS X,10_15_7,69aac57e16ab92fbf4ebb6c052416712
25,1,,image-keyboard-response,41,213276,0.0-6.0-2.0-1.7,,,,EASY,,,,,988,img/flower_left.png,f,practice,,,j,0,,,2021-11-14 23:31:30,24.4.120.49,"Mozilla/5.0 (Macintosh; Intel Mac OS X 10_15_7) AppleWebKit/605.1.15 (KHTML, like Gecko) Version/15.1 Safari/605.1.15",Macintosh,Safari,15.1,OS X,10_15_7,69aac57e16ab92fbf4ebb6c052416712
25,1,,html-keyboard-response,42,214278,0.0-6.0-2.0-2.7,,,,EASY,,,,,null,INCORRECT!,null,,,,,,feedback,,2021-11-14 23:31:30,24.4.120.49,"Mozilla/5.0 (Macintosh; Intel Mac OS X 10_15_7) AppleWebKit/605.1.15 (KHTML, like Gecko) Version/15.1 Safari/605.1.15",Macintosh,Safari,15.1,OS X,10_15_7,69aac57e16ab92fbf4ebb6c052416712
25,1,,image-keyboard-response,43,214530,0.0-6.0-2.0-0.8,,,,EASY,,,,,null,img/fixation.png,null,fixation,,,,,,,2021-11-14 23:31:30,24.4.120.49,"Mozilla/5.0 (Macintosh; Intel Mac OS X 10_15_7) AppleWebKit/605.1.15 (KHTML, like Gecko) Version/15.1 Safari/605.1.15",Macintosh,Safari,15.1,OS X,10_15_7,69aac57e16ab92fbf4ebb6c052416712
25,1,,image-keyboard-response,44,215140,0.0-6.0-2.0-1.8,,,,EASY,,,,,604,img/flower_right.png,f,practice,,,f,1,,,2021-11-14 23:31:30,24.4.120.49,"Mozilla/5.0 (Macintosh; Intel Mac OS X 10_15_7) AppleWebKit/605.1.15 (KHTML, like Gecko) Version/15.1 Safari/605.1.15",Macintosh,Safari,15.1,OS X,10_15_7,69aac57e16ab92fbf4ebb6c052416712
25,1,,html-keyboard-response,45,216143,0.0-6.0-2.0-2.8,,,,EASY,,,,,null,CORRECT!,null,,,,,,feedback,,2021-11-14 23:31:30,24.4.120.49,"Mozilla/5.0 (Macintosh; Intel Mac OS X 10_15_7) AppleWebKit/605.1.15 (KHTML, like Gecko) Version/15.1 Safari/605.1.15",Macintosh,Safari,15.1,OS X,10_15_7,69aac57e16ab92fbf4ebb6c052416712
25,1,,image-keyboard-response,46,216896,0.0-6.0-2.0-0.9,,,,EASY,,,,,null,img/fixation.png,null,fixation,,,,,,,2021-11-14 23:31:30,24.4.120.49,"Mozilla/5.0 (Macintosh; Intel Mac OS X 10_15_7) AppleWebKit/605.1.15 (KHTML, like Gecko) Version/15.1 Safari/605.1.15",Macintosh,Safari,15.1,OS X,10_15_7,69aac57e16ab92fbf4ebb6c052416712
25,1,,image-keyboard-response,47,217550,0.0-6.0-2.0-1.9,,,,EASY,,,,,651.9999999999710,img/flower_right.png,j,practice,,,f,0,,,2021-11-14 23:31:30,24.4.120.49,"Mozilla/5.0 (Macintosh; Intel Mac OS X 10_15_7) AppleWebKit/605.1.15 (KHTML, like Gecko) Version/15.1 Safari/605.1.15",Macintosh,Safari,15.1,OS X,10_15_7,69aac57e16ab92fbf4ebb6c052416712
25,1,,html-keyboard-response,48,218553,0.0-6.0-2.0-2.9,,,,EASY,,,,,null,INCORRECT!,null,,,,,,feedback,,2021-11-14 23:31:30,24.4.120.49,"Mozilla/5.0 (Macintosh; Intel Mac OS X 10_15_7) AppleWebKit/605.1.15 (KHTML, like Gecko) Version/15.1 Safari/605.1.15",Macintosh,Safari,15.1,OS X,10_15_7,69aac57e16ab92fbf4ebb6c052416712
25,1,,image-button-response,49,225761,0.0-6.0-3.0-0.0,,,,EASY,,,,,7205.000000000030,repeat_instructions.png,0,,,,,,,,2021-11-14 23:31:30,24.4.120.49,"Mozilla/5.0 (Macintosh; Intel Mac OS X 10_15_7) AppleWebKit/605.1.15 (KHTML, like Gecko) Version/15.1 Safari/605.1.15",Macintosh,Safari,15.1,OS X,10_15_7,69aac57e16ab92fbf4ebb6c052416712
25,1,,instructions,50,229760,0.0-6.1-0.1,,,,EASY,,,,,3995,,,,,"[{""page_index"":0,""viewing_time"":930.0000000000291},{""page_index"":1,""viewing_time"":448.9999999999709},{""page_index"":2,""viewing_time"":484},{""page_index"":3,""viewing_time"":417},{""page_index"":4,""viewing_time"":450},{""page_index"":5,""viewing_time"":533},{""page_index"":6,""viewing_time"":732}]",,,,,2021-11-14 23:31:30,24.4.120.49,"Mozilla/5.0 (Macintosh; Intel Mac OS X 10_15_7) AppleWebKit/605.1.15 (KHTML, like Gecko) Version/15.1 Safari/605.1.15",Macintosh,Safari,15.1,OS X,10_15_7,69aac57e16ab92fbf4ebb6c052416712
25,1,,image-button-response,51,232411,0.0-6.1-1.1,,,,EASY,,,,,2635,begin_practice.png,0,,,,,,,,2021-11-14 23:31:30,24.4.120.49,"Mozilla/5.0 (Macintosh; Intel Mac OS X 10_15_7) AppleWebKit/605.1.15 (KHTML, like Gecko) Version/15.1 Safari/605.1.15",Macintosh,Safari,15.1,OS X,10_15_7,69aac57e16ab92fbf4ebb6c052416712
25,1,,image-keyboard-response,52,234666,0.0-6.1-2.1-0.10,,,,EASY,,,,,null,img/fixation.png,null,fixation,,,,,,,2021-11-14 23:31:30,24.4.120.49,"Mozilla/5.0 (Macintosh; Intel Mac OS X 10_15_7) AppleWebKit/605.1.15 (KHTML, like Gecko) Version/15.1 Safari/605.1.15",Macintosh,Safari,15.1,OS X,10_15_7,69aac57e16ab92fbf4ebb6c052416712
25,1,,image-keyboard-response,53,235349,0.0-6.1-2.1-1.10,,,,EASY,,,,,681,img/flower_left.png,j,practice,,,j,1,,,2021-11-14 23:31:30,24.4.120.49,"Mozilla/5.0 (Macintosh; Intel Mac OS X 10_15_7) AppleWebKit/605.1.15 (KHTML, like Gecko) Version/15.1 Safari/605.1.15",Macintosh,Safari,15.1,OS X,10_15_7,69aac57e16ab92fbf4ebb6c052416712
25,1,,html-keyboard-response,54,236351,0.0-6.1-2.1-2.10,,,,EASY,,,,,null,CORRECT!,null,,,,,,feedback,,2021-11-14 23:31:30,24.4.120.49,"Mozilla/5.0 (Macintosh; Intel Mac OS X 10_15_7) AppleWebKit/605.1.15 (KHTML, like Gecko) Version/15.1 Safari/605.1.15",Macintosh,Safari,15.1,OS X,10_15_7,69aac57e16ab92fbf4ebb6c052416712
25,1,,image-keyboard-response,55,237853,0.0-6.1-2.1-0.11,,,,EASY,,,,,null,img/fixation.png,null,fixation,,,,,,,2021-11-14 23:31:30,24.4.120.49,"Mozilla/5.0 (Macintosh; Intel Mac OS X 10_15_7) AppleWebKit/605.1.15 (KHTML, like Gecko) Version/15.1 Safari/605.1.15",Macintosh,Safari,15.1,OS X,10_15_7,69aac57e16ab92fbf4ebb6c052416712
25,1,,image-keyboard-response,56,238421,0.0-6.1-2.1-1.11,,,,EASY,,,,,561.0000000000290,img/heart_left.png,f,practice,,,f,1,,,2021-11-14 23:31:30,24.4.120.49,"Mozilla/5.0 (Macintosh; Intel Mac OS X 10_15_7) AppleWebKit/605.1.15 (KHTML, like Gecko) Version/15.1 Safari/605.1.15",Macintosh,Safari,15.1,OS X,10_15_7,69aac57e16ab92fbf4ebb6c052416712
25,1,,html-keyboard-response,57,239423,0.0-6.1-2.1-2.11,,,,EASY,,,,,null,CORRECT!,null,,,,,,feedback,,2021-11-14 23:31:30,24.4.120.49,"Mozilla/5.0 (Macintosh; Intel Mac OS X 10_15_7) AppleWebKit/605.1.15 (KHTML, like Gecko) Version/15.1 Safari/605.1.15",Macintosh,Safari,15.1,OS X,10_15_7,69aac57e16ab92fbf4ebb6c052416712
25,1,,image-keyboard-response,58,239926,0.0-6.1-2.1-0.12,,,,EASY,,,,,null,img/fixation.png,null,fixation,,,,,,,2021-11-14 23:31:30,24.4.120.49,"Mozilla/5.0 (Macintosh; Intel Mac OS X 10_15_7) AppleWebKit/605.1.15 (KHTML, like Gecko) Version/15.1 Safari/605.1.15",Macintosh,Safari,15.1,OS X,10_15_7,69aac57e16ab92fbf4ebb6c052416712
25,1,,image-keyboard-response,59,240627,0.0-6.1-2.1-1.12,,,,EASY,,,,,699.9999999999710,img/heart_left.png,f,practice,,,f,1,,,2021-11-14 23:31:30,24.4.120.49,"Mozilla/5.0 (Macintosh; Intel Mac OS X 10_15_7) AppleWebKit/605.1.15 (KHTML, like Gecko) Version/15.1 Safari/605.1.15",Macintosh,Safari,15.1,OS X,10_15_7,69aac57e16ab92fbf4ebb6c052416712
25,1,,html-keyboard-response,60,241629,0.0-6.1-2.1-2.12,,,,EASY,,,,,null,CORRECT!,null,,,,,,feedback,,2021-11-14 23:31:30,24.4.120.49,"Mozilla/5.0 (Macintosh; Intel Mac OS X 10_15_7) AppleWebKit/605.1.15 (KHTML, like Gecko) Version/15.1 Safari/605.1.15",Macintosh,Safari,15.1,OS X,10_15_7,69aac57e16ab92fbf4ebb6c052416712
25,1,,image-keyboard-response,61,243632,0.0-6.1-2.1-0.13,,,,EASY,,,,,null,img/fixation.png,null,fixation,,,,,,,2021-11-14 23:31:30,24.4.120.49,"Mozilla/5.0 (Macintosh; Intel Mac OS X 10_15_7) AppleWebKit/605.1.15 (KHTML, like Gecko) Version/15.1 Safari/605.1.15",Macintosh,Safari,15.1,OS X,10_15_7,69aac57e16ab92fbf4ebb6c052416712
25,1,,image-keyboard-response,62,244238,0.0-6.1-2.1-1.13,,,,EASY,,,,,603,img/flower_left.png,j,practice,,,j,1,,,2021-11-14 23:31:30,24.4.120.49,"Mozilla/5.0 (Macintosh; Intel Mac OS X 10_15_7) AppleWebKit/605.1.15 (KHTML, like Gecko) Version/15.1 Safari/605.1.15",Macintosh,Safari,15.1,OS X,10_15_7,69aac57e16ab92fbf4ebb6c052416712
25,1,,html-keyboard-response,63,245239,0.0-6.1-2.1-2.13,,,,EASY,,,,,null,CORRECT!,null,,,,,,feedback,,2021-11-14 23:31:30,24.4.120.49,"Mozilla/5.0 (Macintosh; Intel Mac OS X 10_15_7) AppleWebKit/605.1.15 (KHTML, like Gecko) Version/15.1 Safari/605.1.15",Macintosh,Safari,15.1,OS X,10_15_7,69aac57e16ab92fbf4ebb6c052416712
25,1,,image-keyboard-response,64,246492,0.0-6.1-2.1-0.14,,,,EASY,,,,,null,img/fixation.png,null,fixation,,,,,,,2021-11-14 23:31:30,24.4.120.49,"Mozilla/5.0 (Macintosh; Intel Mac OS X 10_15_7) AppleWebKit/605.1.15 (KHTML, like Gecko) Version/15.1 Safari/605.1.15",Macintosh,Safari,15.1,OS X,10_15_7,69aac57e16ab92fbf4ebb6c052416712
25,1,,image-keyboard-response,65,247174,0.0-6.1-2.1-1.14,,,,EASY,,,,,680.9999999999710,img/heart_left.png,f,practice,,,f,1,,,2021-11-14 23:31:30,24.4.120.49,"Mozilla/5.0 (Macintosh; Intel Mac OS X 10_15_7) AppleWebKit/605.1.15 (KHTML, like Gecko) Version/15.1 Safari/605.1.15",Macintosh,Safari,15.1,OS X,10_15_7,69aac57e16ab92fbf4ebb6c052416712
25,1,,html-keyboard-response,66,248175,0.0-6.1-2.1-2.14,,,,EASY,,,,,null,CORRECT!,null,,,,,,feedback,,2021-11-14 23:31:30,24.4.120.49,"Mozilla/5.0 (Macintosh; Intel Mac OS X 10_15_7) AppleWebKit/605.1.15 (KHTML, like Gecko) Version/15.1 Safari/605.1.15",Macintosh,Safari,15.1,OS X,10_15_7,69aac57e16ab92fbf4ebb6c052416712
25,1,,image-keyboard-response,67,248432,0.0-6.1-2.1-0.15,,,,EASY,,,,,null,img/fixation.png,null,fixation,,,,,,,2021-11-14 23:31:30,24.4.120.49,"Mozilla/5.0 (Macintosh; Intel Mac OS X 10_15_7) AppleWebKit/605.1.15 (KHTML, like Gecko) Version/15.1 Safari/605.1.15",Macintosh,Safari,15.1,OS X,10_15_7,69aac57e16ab92fbf4ebb6c052416712
25,1,,image-keyboard-response,68,248999,0.0-6.1-2.1-1.15,,,,EASY,,,,,565.0000000000290,img/heart_left.png,f,practice,,,f,1,,,2021-11-14 23:31:30,24.4.120.49,"Mozilla/5.0 (Macintosh; Intel Mac OS X 10_15_7) AppleWebKit/605.1.15 (KHTML, like Gecko) Version/15.1 Safari/605.1.15",Macintosh,Safari,15.1,OS X,10_15_7,69aac57e16ab92fbf4ebb6c052416712
25,1,,html-keyboard-response,69,250003,0.0-6.1-2.1-2.15,,,,EASY,,,,,null,CORRECT!,null,,,,,,feedback,,2021-11-14 23:31:30,24.4.120.49,"Mozilla/5.0 (Macintosh; Intel Mac OS X 10_15_7) AppleWebKit/605.1.15 (KHTML, like Gecko) Version/15.1 Safari/605.1.15",Macintosh,Safari,15.1,OS X,10_15_7,69aac57e16ab92fbf4ebb6c052416712
25,1,,image-keyboard-response,70,251255,0.0-6.1-2.1-0.16,,,,EASY,,,,,null,img/fixation.png,null,fixation,,,,,,,2021-11-14 23:31:30,24.4.120.49,"Mozilla/5.0 (Macintosh; Intel Mac OS X 10_15_7) AppleWebKit/605.1.15 (KHTML, like Gecko) Version/15.1 Safari/605.1.15",Macintosh,Safari,15.1,OS X,10_15_7,69aac57e16ab92fbf4ebb6c052416712
25,1,,image-keyboard-response,71,251965,0.0-6.1-2.1-1.16,,,,EASY,,,,,696,img/heart_right.png,j,practice,,,j,1,,,2021-11-14 23:31:30,24.4.120.49,"Mozilla/5.0 (Macintosh; Intel Mac OS X 10_15_7) AppleWebKit/605.1.15 (KHTML, like Gecko) Version/15.1 Safari/605.1.15",Macintosh,Safari,15.1,OS X,10_15_7,69aac57e16ab92fbf4ebb6c052416712
25,1,,html-keyboard-response,72,252967,0.0-6.1-2.1-2.16,,,,EASY,,,,,null,CORRECT!,null,,,,,,feedback,,2021-11-14 23:31:30,24.4.120.49,"Mozilla/5.0 (Macintosh; Intel Mac OS X 10_15_7) AppleWebKit/605.1.15 (KHTML, like Gecko) Version/15.1 Safari/605.1.15",Macintosh,Safari,15.1,OS X,10_15_7,69aac57e16ab92fbf4ebb6c052416712
25,1,,image-keyboard-response,73,254219,0.0-6.1-2.1-0.17,,,,EASY,,,,,null,img/fixation.png,null,fixation,,,,,,,2021-11-14 23:31:30,24.4.120.49,"Mozilla/5.0 (Macintosh; Intel Mac OS X 10_15_7) AppleWebKit/605.1.15 (KHTML, like Gecko) Version/15.1 Safari/605.1.15",Macintosh,Safari,15.1,OS X,10_15_7,69aac57e16ab92fbf4ebb6c052416712
25,1,,image-keyboard-response,74,254677,0.0-6.1-2.1-1.17,,,,EASY,,,,,457.0000000000290,img/heart_left.png,f,practice,,,f,1,,,2021-11-14 23:31:30,24.4.120.49,"Mozilla/5.0 (Macintosh; Intel Mac OS X 10_15_7) AppleWebKit/605.1.15 (KHTML, like Gecko) Version/15.1 Safari/605.1.15",Macintosh,Safari,15.1,OS X,10_15_7,69aac57e16ab92fbf4ebb6c052416712
25,1,,html-keyboard-response,75,255680,0.0-6.1-2.1-2.17,,,,EASY,,,,,null,CORRECT!,null,,,,,,feedback,,2021-11-14 23:31:30,24.4.120.49,"Mozilla/5.0 (Macintosh; Intel Mac OS X 10_15_7) AppleWebKit/605.1.15 (KHTML, like Gecko) Version/15.1 Safari/605.1.15",Macintosh,Safari,15.1,OS X,10_15_7,69aac57e16ab92fbf4ebb6c052416712
25,1,,image-keyboard-response,76,256933,0.0-6.1-2.1-0.18,,,,EASY,,,,,null,img/fixation.png,null,fixation,,,,,,,2021-11-14 23:31:30,24.4.120.49,"Mozilla/5.0 (Macintosh; Intel Mac OS X 10_15_7) AppleWebKit/605.1.15 (KHTML, like Gecko) Version/15.1 Safari/605.1.15",Macintosh,Safari,15.1,OS X,10_15_7,69aac57e16ab92fbf4ebb6c052416712
25,1,,image-keyboard-response,77,257565,0.0-6.1-2.1-1.18,,,,EASY,,,,,627.0000000000290,img/flower_left.png,j,practice,,,j,1,,,2021-11-14 23:31:30,24.4.120.49,"Mozilla/5.0 (Macintosh; Intel Mac OS X 10_15_7) AppleWebKit/605.1.15 (KHTML, like Gecko) Version/15.1 Safari/605.1.15",Macintosh,Safari,15.1,OS X,10_15_7,69aac57e16ab92fbf4ebb6c052416712
25,1,,html-keyboard-response,78,258567,0.0-6.1-2.1-2.18,,,,EASY,,,,,null,CORRECT!,null,,,,,,feedback,,2021-11-14 23:31:30,24.4.120.49,"Mozilla/5.0 (Macintosh; Intel Mac OS X 10_15_7) AppleWebKit/605.1.15 (KHTML, like Gecko) Version/15.1 Safari/605.1.15",Macintosh,Safari,15.1,OS X,10_15_7,69aac57e16ab92fbf4ebb6c052416712
25,1,,image-keyboard-response,79,259070,0.0-6.1-2.1-0.19,,,,EASY,,,,,null,img/fixation.png,null,fixation,,,,,,,2021-11-14 23:31:30,24.4.120.49,"Mozilla/5.0 (Macintosh; Intel Mac OS X 10_15_7) AppleWebKit/605.1.15 (KHTML, like Gecko) Version/15.1 Safari/605.1.15",Macintosh,Safari,15.1,OS X,10_15_7,69aac57e16ab92fbf4ebb6c052416712
25,1,,image-keyboard-response,80,259773,0.0-6.1-2.1-1.19,,,,EASY,,,,,702,img/flower_left.png,j,practice,,,j,1,,,2021-11-14 23:31:30,24.4.120.49,"Mozilla/5.0 (Macintosh; Intel Mac OS X 10_15_7) AppleWebKit/605.1.15 (KHTML, like Gecko) Version/15.1 Safari/605.1.15",Macintosh,Safari,15.1,OS X,10_15_7,69aac57e16ab92fbf4ebb6c052416712
25,1,,html-keyboard-response,81,260775,0.0-6.1-2.1-2.19,,,,EASY,,,,,null,CORRECT!,null,,,,,,feedback,,2021-11-14 23:31:30,24.4.120.49,"Mozilla/5.0 (Macintosh; Intel Mac OS X 10_15_7) AppleWebKit/605.1.15 (KHTML, like Gecko) Version/15.1 Safari/605.1.15",Macintosh,Safari,15.1,OS X,10_15_7,69aac57e16ab92fbf4ebb6c052416712
25,1,,image-button-response,82,265263,0.0-7.0,,,,EASY,,,,,4484,img/begin_experiment.png,0,,,,,,,,2021-11-14 23:31:30,24.4.120.49,"Mozilla/5.0 (Macintosh; Intel Mac OS X 10_15_7) AppleWebKit/605.1.15 (KHTML, like Gecko) Version/15.1 Safari/605.1.15",Macintosh,Safari,15.1,OS X,10_15_7,69aac57e16ab92fbf4ebb6c052416712
25,1,,html-button-response,83,269413,0.0-8.0,,,,EASY,,,,,2147,Block 1,0,,,,,,,,2021-11-14 23:31:30,24.4.120.49,"Mozilla/5.0 (Macintosh; Intel Mac OS X 10_15_7) AppleWebKit/605.1.15 (KHTML, like Gecko) Version/15.1 Safari/605.1.15",Macintosh,Safari,15.1,OS X,10_15_7,69aac57e16ab92fbf4ebb6c052416712
25,1,,image-keyboard-response,84,273169,0.0-9.0-0.0,,,,EASY,,,,,null,img/fixation.png,null,fixation,,,,,,1,2021-11-14 23:31:30,24.4.120.49,"Mozilla/5.0 (Macintosh; Intel Mac OS X 10_15_7) AppleWebKit/605.1.15 (KHTML, like Gecko) Version/15.1 Safari/605.1.15",Macintosh,Safari,15.1,OS X,10_15_7,69aac57e16ab92fbf4ebb6c052416712
25,1,,image-keyboard-response,85,273960,0.0-9.0-1.0,,,,EASY,,,,,789,img/flower_left.png,j,response,,,j,1,,1,2021-11-14 23:31:30,24.4.120.49,"Mozilla/5.0 (Macintosh; Intel Mac OS X 10_15_7) AppleWebKit/605.1.15 (KHTML, like Gecko) Version/15.1 Safari/605.1.15",Macintosh,Safari,15.1,OS X,10_15_7,69aac57e16ab92fbf4ebb6c052416712
25,1,,image-keyboard-response,86,274969,0.0-9.0-0.1,,,,EASY,,,,,null,img/fixation.png,null,fixation,,,,,,1,2021-11-14 23:31:30,24.4.120.49,"Mozilla/5.0 (Macintosh; Intel Mac OS X 10_15_7) AppleWebKit/605.1.15 (KHTML, like Gecko) Version/15.1 Safari/605.1.15",Macintosh,Safari,15.1,OS X,10_15_7,69aac57e16ab92fbf4ebb6c052416712
25,1,,image-keyboard-response,87,275446,0.0-9.0-1.1,,,,EASY,,,,,472.9999999999420,img/flower_left.png,j,response,,,j,1,,1,2021-11-14 23:31:30,24.4.120.49,"Mozilla/5.0 (Macintosh; Intel Mac OS X 10_15_7) AppleWebKit/605.1.15 (KHTML, like Gecko) Version/15.1 Safari/605.1.15",Macintosh,Safari,15.1,OS X,10_15_7,69aac57e16ab92fbf4ebb6c052416712
25,1,,image-keyboard-response,88,275948,0.0-9.0-0.2,,,,EASY,,,,,null,img/fixation.png,null,fixation,,,,,,1,2021-11-14 23:31:30,24.4.120.49,"Mozilla/5.0 (Macintosh; Intel Mac OS X 10_15_7) AppleWebKit/605.1.15 (KHTML, like Gecko) Version/15.1 Safari/605.1.15",Macintosh,Safari,15.1,OS X,10_15_7,69aac57e16ab92fbf4ebb6c052416712
25,1,,image-keyboard-response,89,276381,0.0-9.0-1.2,,,,EASY,,,,,432.9999999999420,img/heart_right.png,f,response,,,j,0,,1,2021-11-14 23:31:30,24.4.120.49,"Mozilla/5.0 (Macintosh; Intel Mac OS X 10_15_7) AppleWebKit/605.1.15 (KHTML, like Gecko) Version/15.1 Safari/605.1.15",Macintosh,Safari,15.1,OS X,10_15_7,69aac57e16ab92fbf4ebb6c052416712
25,1,,image-keyboard-response,90,277634,0.0-9.0-0.3,,,,EASY,,,,,null,img/fixation.png,null,fixation,,,,,,1,2021-11-14 23:31:30,24.4.120.49,"Mozilla/5.0 (Macintosh; Intel Mac OS X 10_15_7) AppleWebKit/605.1.15 (KHTML, like Gecko) Version/15.1 Safari/605.1.15",Macintosh,Safari,15.1,OS X,10_15_7,69aac57e16ab92fbf4ebb6c052416712
25,1,,image-keyboard-response,91,278111,0.0-9.0-1.3,,,,EASY,,,,,472,img/flower_left.png,j,response,,,j,1,,1,2021-11-14 23:31:30,24.4.120.49,"Mozilla/5.0 (Macintosh; Intel Mac OS X 10_15_7) AppleWebKit/605.1.15 (KHTML, like Gecko) Version/15.1 Safari/605.1.15",Macintosh,Safari,15.1,OS X,10_15_7,69aac57e16ab92fbf4ebb6c052416712
25,1,,image-keyboard-response,92,278862,0.0-9.0-0.4,,,,EASY,,,,,null,img/fixation.png,null,fixation,,,,,,1,2021-11-14 23:31:30,24.4.120.49,"Mozilla/5.0 (Macintosh; Intel Mac OS X 10_15_7) AppleWebKit/605.1.15 (KHTML, like Gecko) Version/15.1 Safari/605.1.15",Macintosh,Safari,15.1,OS X,10_15_7,69aac57e16ab92fbf4ebb6c052416712
25,1,,image-keyboard-response,93,279294,0.0-9.0-1.4,,,,EASY,,,,,429,img/heart_right.png,j,response,,,j,1,,1,2021-11-14 23:31:30,24.4.120.49,"Mozilla/5.0 (Macintosh; Intel Mac OS X 10_15_7) AppleWebKit/605.1.15 (KHTML, like Gecko) Version/15.1 Safari/605.1.15",Macintosh,Safari,15.1,OS X,10_15_7,69aac57e16ab92fbf4ebb6c052416712
25,1,,image-keyboard-response,94,280046,0.0-9.0-0.5,,,,EASY,,,,,null,img/fixation.png,null,fixation,,,,,,1,2021-11-14 23:31:30,24.4.120.49,"Mozilla/5.0 (Macintosh; Intel Mac OS X 10_15_7) AppleWebKit/605.1.15 (KHTML, like Gecko) Version/15.1 Safari/605.1.15",Macintosh,Safari,15.1,OS X,10_15_7,69aac57e16ab92fbf4ebb6c052416712
25,1,,image-keyboard-response,95,280361,0.0-9.0-1.5,,,,EASY,,,,,314,img/heart_left.png,j,response,,,f,0,,1,2021-11-14 23:31:30,24.4.120.49,"Mozilla/5.0 (Macintosh; Intel Mac OS X 10_15_7) AppleWebKit/605.1.15 (KHTML, like Gecko) Version/15.1 Safari/605.1.15",Macintosh,Safari,15.1,OS X,10_15_7,69aac57e16ab92fbf4ebb6c052416712
25,1,,image-keyboard-response,96,281864,0.0-9.0-0.6,,,,EASY,,,,,null,img/fixation.png,null,fixation,,,,,,1,2021-11-14 23:31:30,24.4.120.49,"Mozilla/5.0 (Macintosh; Intel Mac OS X 10_15_7) AppleWebKit/605.1.15 (KHTML, like Gecko) Version/15.1 Safari/605.1.15",Macintosh,Safari,15.1,OS X,10_15_7,69aac57e16ab92fbf4ebb6c052416712
25,1,,image-keyboard-response,97,282207,0.0-9.0-1.6,,,,EASY,,,,,342,img/flower_right.png,j,response,,,f,0,,1,2021-11-14 23:31:30,24.4.120.49,"Mozilla/5.0 (Macintosh; Intel Mac OS X 10_15_7) AppleWebKit/605.1.15 (KHTML, like Gecko) Version/15.1 Safari/605.1.15",Macintosh,Safari,15.1,OS X,10_15_7,69aac57e16ab92fbf4ebb6c052416712
25,1,,image-keyboard-response,98,282963,0.0-9.0-0.7,,,,EASY,,,,,null,img/fixation.png,null,fixation,,,,,,1,2021-11-14 23:31:30,24.4.120.49,"Mozilla/5.0 (Macintosh; Intel Mac OS X 10_15_7) AppleWebKit/605.1.15 (KHTML, like Gecko) Version/15.1 Safari/605.1.15",Macintosh,Safari,15.1,OS X,10_15_7,69aac57e16ab92fbf4ebb6c052416712
25,1,,image-keyboard-response,99,283278,0.0-9.0-1.7,,,,EASY,,,,,313,img/flower_right.png,j,response,,,f,0,,1,2021-11-14 23:31:30,24.4.120.49,"Mozilla/5.0 (Macintosh; Intel Mac OS X 10_15_7) AppleWebKit/605.1.15 (KHTML, like Gecko) Version/15.1 Safari/605.1.15",Macintosh,Safari,15.1,OS X,10_15_7,69aac57e16ab92fbf4ebb6c052416712
25,1,,image-keyboard-response,100,284030,0.0-9.0-0.8,,,,EASY,,,,,null,img/fixation.png,null,fixation,,,,,,1,2021-11-14 23:31:30,24.4.120.49,"Mozilla/5.0 (Macintosh; Intel Mac OS X 10_15_7) AppleWebKit/605.1.15 (KHTML, like Gecko) Version/15.1 Safari/605.1.15",Macintosh,Safari,15.1,OS X,10_15_7,69aac57e16ab92fbf4ebb6c052416712
25,1,,image-keyboard-response,101,284399,0.0-9.0-1.8,,,,EASY,,,,,368,img/flower_right.png,j,response,,,f,0,,1,2021-11-14 23:31:30,24.4.120.49,"Mozilla/5.0 (Macintosh; Intel Mac OS X 10_15_7) AppleWebKit/605.1.15 (KHTML, like Gecko) Version/15.1 Safari/605.1.15",Macintosh,Safari,15.1,OS X,10_15_7,69aac57e16ab92fbf4ebb6c052416712
25,1,,image-keyboard-response,102,284652,0.0-9.0-0.9,,,,EASY,,,,,null,img/fixation.png,null,fixation,,,,,,1,2021-11-14 23:31:30,24.4.120.49,"Mozilla/5.0 (Macintosh; Intel Mac OS X 10_15_7) AppleWebKit/605.1.15 (KHTML, like Gecko) Version/15.1 Safari/605.1.15",Macintosh,Safari,15.1,OS X,10_15_7,69aac57e16ab92fbf4ebb6c052416712
25,1,,image-keyboard-response,103,285086,0.0-9.0-1.9,,,,EASY,,,,,433.0000000000580,img/flower_right.png,j,response,,,f,0,,1,2021-11-14 23:31:30,24.4.120.49,"Mozilla/5.0 (Macintosh; Intel Mac OS X 10_15_7) AppleWebKit/605.1.15 (KHTML, like Gecko) Version/15.1 Safari/605.1.15",Macintosh,Safari,15.1,OS X,10_15_7,69aac57e16ab92fbf4ebb6c052416712
25,1,,html-keyboard-response,104,286838,0.0-10.0,,,,EASY,,,,,1750,"<p>You responded correctly on 40% of the trials.</p>
      <p>Your average response time was 541ms.</p>
      <p>Press any key to begin Block 2!</p>",f,debrief,,,,,,,2021-11-14 23:31:30,24.4.120.49,"Mozilla/5.0 (Macintosh; Intel Mac OS X 10_15_7) AppleWebKit/605.1.15 (KHTML, like Gecko) Version/15.1 Safari/605.1.15",Macintosh,Safari,15.1,OS X,10_15_7,69aac57e16ab92fbf4ebb6c052416712
25,1,,html-button-response,105,288680,0.0-11.0,,,,EASY,,,,,1839,Block 2,0,,,,,,,,2021-11-14 23:31:30,24.4.120.49,"Mozilla/5.0 (Macintosh; Intel Mac OS X 10_15_7) AppleWebKit/605.1.15 (KHTML, like Gecko) Version/15.1 Safari/605.1.15",Macintosh,Safari,15.1,OS X,10_15_7,69aac57e16ab92fbf4ebb6c052416712
25,1,,image-keyboard-response,106,291934,0.0-12.0-0.0,,,,EASY,,,,,null,img/fixation.png,null,fixation,,,,,,2,2021-11-14 23:31:30,24.4.120.49,"Mozilla/5.0 (Macintosh; Intel Mac OS X 10_15_7) AppleWebKit/605.1.15 (KHTML, like Gecko) Version/15.1 Safari/605.1.15",Macintosh,Safari,15.1,OS X,10_15_7,69aac57e16ab92fbf4ebb6c052416712
25,1,,image-keyboard-response,107,292630,0.0-12.0-1.0,,,,EASY,,,,,692,img/flower_right.png,j,response,,,f,0,,2,2021-11-14 23:31:30,24.4.120.49,"Mozilla/5.0 (Macintosh; Intel Mac OS X 10_15_7) AppleWebKit/605.1.15 (KHTML, like Gecko) Version/15.1 Safari/605.1.15",Macintosh,Safari,15.1,OS X,10_15_7,69aac57e16ab92fbf4ebb6c052416712
25,1,,image-keyboard-response,108,294384,0.0-12.0-0.1,,,,EASY,,,,,null,img/fixation.png,null,fixation,,,,,,2,2021-11-14 23:31:30,24.4.120.49,"Mozilla/5.0 (Macintosh; Intel Mac OS X 10_15_7) AppleWebKit/605.1.15 (KHTML, like Gecko) Version/15.1 Safari/605.1.15",Macintosh,Safari,15.1,OS X,10_15_7,69aac57e16ab92fbf4ebb6c052416712
25,1,,image-keyboard-response,109,294798,0.0-12.0-1.1,,,,EASY,,,,,412,img/flower_left.png,f,response,,,j,0,,2,2021-11-14 23:31:30,24.4.120.49,"Mozilla/5.0 (Macintosh; Intel Mac OS X 10_15_7) AppleWebKit/605.1.15 (KHTML, like Gecko) Version/15.1 Safari/605.1.15",Macintosh,Safari,15.1,OS X,10_15_7,69aac57e16ab92fbf4ebb6c052416712
25,1,,image-keyboard-response,110,296300,0.0-12.0-0.2,,,,EASY,,,,,null,img/fixation.png,null,fixation,,,,,,2,2021-11-14 23:31:30,24.4.120.49,"Mozilla/5.0 (Macintosh; Intel Mac OS X 10_15_7) AppleWebKit/605.1.15 (KHTML, like Gecko) Version/15.1 Safari/605.1.15",Macintosh,Safari,15.1,OS X,10_15_7,69aac57e16ab92fbf4ebb6c052416712
25,1,,image-keyboard-response,111,296608,0.0-12.0-1.2,,,,EASY,,,,,308,img/heart_left.png,j,response,,,f,0,,2,2021-11-14 23:31:30,24.4.120.49,"Mozilla/5.0 (Macintosh; Intel Mac OS X 10_15_7) AppleWebKit/605.1.15 (KHTML, like Gecko) Version/15.1 Safari/605.1.15",Macintosh,Safari,15.1,OS X,10_15_7,69aac57e16ab92fbf4ebb6c052416712
25,1,,image-keyboard-response,112,298361,0.0-12.0-0.3,,,,EASY,,,,,null,img/fixation.png,null,fixation,,,,,,2,2021-11-14 23:31:30,24.4.120.49,"Mozilla/5.0 (Macintosh; Intel Mac OS X 10_15_7) AppleWebKit/605.1.15 (KHTML, like Gecko) Version/15.1 Safari/605.1.15",Macintosh,Safari,15.1,OS X,10_15_7,69aac57e16ab92fbf4ebb6c052416712
25,1,,image-keyboard-response,113,298689,0.0-12.0-1.3,,,,EASY,,,,,323,img/flower_right.png,j,response,,,f,0,,2,2021-11-14 23:31:30,24.4.120.49,"Mozilla/5.0 (Macintosh; Intel Mac OS X 10_15_7) AppleWebKit/605.1.15 (KHTML, like Gecko) Version/15.1 Safari/605.1.15",Macintosh,Safari,15.1,OS X,10_15_7,69aac57e16ab92fbf4ebb6c052416712
25,1,,image-keyboard-response,114,300191,0.0-12.0-0.4,,,,EASY,,,,,null,img/fixation.png,null,fixation,,,,,,2,2021-11-14 23:31:30,24.4.120.49,"Mozilla/5.0 (Macintosh; Intel Mac OS X 10_15_7) AppleWebKit/605.1.15 (KHTML, like Gecko) Version/15.1 Safari/605.1.15",Macintosh,Safari,15.1,OS X,10_15_7,69aac57e16ab92fbf4ebb6c052416712
25,1,,image-keyboard-response,115,300534,0.0-12.0-1.4,,,,EASY,,,,,342,img/flower_left.png,j,response,,,j,1,,2,2021-11-14 23:31:30,24.4.120.49,"Mozilla/5.0 (Macintosh; Intel Mac OS X 10_15_7) AppleWebKit/605.1.15 (KHTML, like Gecko) Version/15.1 Safari/605.1.15",Macintosh,Safari,15.1,OS X,10_15_7,69aac57e16ab92fbf4ebb6c052416712
25,1,,image-keyboard-response,116,302285,0.0-12.0-0.5,,,,EASY,,,,,null,img/fixation.png,null,fixation,,,,,,2,2021-11-14 23:31:30,24.4.120.49,"Mozilla/5.0 (Macintosh; Intel Mac OS X 10_15_7) AppleWebKit/605.1.15 (KHTML, like Gecko) Version/15.1 Safari/605.1.15",Macintosh,Safari,15.1,OS X,10_15_7,69aac57e16ab92fbf4ebb6c052416712
25,1,,image-keyboard-response,117,302564,0.0-12.0-1.5,,,,EASY,,,,,277,img/heart_left.png,j,response,,,f,0,,2,2021-11-14 23:31:30,24.4.120.49,"Mozilla/5.0 (Macintosh; Intel Mac OS X 10_15_7) AppleWebKit/605.1.15 (KHTML, like Gecko) Version/15.1 Safari/605.1.15",Macintosh,Safari,15.1,OS X,10_15_7,69aac57e16ab92fbf4ebb6c052416712
25,1,,image-keyboard-response,118,304568,0.0-12.0-0.6,,,,EASY,,,,,null,img/fixation.png,null,fixation,,,,,,2,2021-11-14 23:31:30,24.4.120.49,"Mozilla/5.0 (Macintosh; Intel Mac OS X 10_15_7) AppleWebKit/605.1.15 (KHTML, like Gecko) Version/15.1 Safari/605.1.15",Macintosh,Safari,15.1,OS X,10_15_7,69aac57e16ab92fbf4ebb6c052416712
25,1,,image-keyboard-response,119,304850,0.0-12.0-1.6,,,,EASY,,,,,279,img/heart_right.png,f,response,,,j,0,,2,2021-11-14 23:31:30,24.4.120.49,"Mozilla/5.0 (Macintosh; Intel Mac OS X 10_15_7) AppleWebKit/605.1.15 (KHTML, like Gecko) Version/15.1 Safari/605.1.15",Macintosh,Safari,15.1,OS X,10_15_7,69aac57e16ab92fbf4ebb6c052416712
25,1,,image-keyboard-response,120,306852,0.0-12.0-0.7,,,,EASY,,,,,null,img/fixation.png,null,fixation,,,,,,2,2021-11-14 23:31:30,24.4.120.49,"Mozilla/5.0 (Macintosh; Intel Mac OS X 10_15_7) AppleWebKit/605.1.15 (KHTML, like Gecko) Version/15.1 Safari/605.1.15",Macintosh,Safari,15.1,OS X,10_15_7,69aac57e16ab92fbf4ebb6c052416712
25,1,,image-keyboard-response,121,307166,0.0-12.0-1.7,,,,EASY,,,,,313,img/heart_left.png,j,response,,,f,0,,2,2021-11-14 23:31:30,24.4.120.49,"Mozilla/5.0 (Macintosh; Intel Mac OS X 10_15_7) AppleWebKit/605.1.15 (KHTML, like Gecko) Version/15.1 Safari/605.1.15",Macintosh,Safari,15.1,OS X,10_15_7,69aac57e16ab92fbf4ebb6c052416712
25,1,,image-keyboard-response,122,307668,0.0-12.0-0.8,,,,EASY,,,,,null,img/fixation.png,null,fixation,,,,,,2,2021-11-14 23:31:30,24.4.120.49,"Mozilla/5.0 (Macintosh; Intel Mac OS X 10_15_7) AppleWebKit/605.1.15 (KHTML, like Gecko) Version/15.1 Safari/605.1.15",Macintosh,Safari,15.1,OS X,10_15_7,69aac57e16ab92fbf4ebb6c052416712
25,1,,image-keyboard-response,123,308102,0.0-12.0-1.8,,,,EASY,,,,,433,img/flower_right.png,f,response,,,f,1,,2,2021-11-14 23:31:30,24.4.120.49,"Mozilla/5.0 (Macintosh; Intel Mac OS X 10_15_7) AppleWebKit/605.1.15 (KHTML, like Gecko) Version/15.1 Safari/605.1.15",Macintosh,Safari,15.1,OS X,10_15_7,69aac57e16ab92fbf4ebb6c052416712
25,1,,image-keyboard-response,124,309604,0.0-12.0-0.9,,,,EASY,,,,,null,img/fixation.png,null,fixation,,,,,,2,2021-11-14 23:31:30,24.4.120.49,"Mozilla/5.0 (Macintosh; Intel Mac OS X 10_15_7) AppleWebKit/605.1.15 (KHTML, like Gecko) Version/15.1 Safari/605.1.15",Macintosh,Safari,15.1,OS X,10_15_7,69aac57e16ab92fbf4ebb6c052416712
25,1,,image-keyboard-response,125,309950,0.0-12.0-1.9,,,,EASY,,,,,341,img/heart_right.png,j,response,,,j,1,,2,2021-11-14 23:31:30,24.4.120.49,"Mozilla/5.0 (Macintosh; Intel Mac OS X 10_15_7) AppleWebKit/605.1.15 (KHTML, like Gecko) Version/15.1 Safari/605.1.15",Macintosh,Safari,15.1,OS X,10_15_7,69aac57e16ab92fbf4ebb6c052416712
25,1,,html-keyboard-response,126,312270,0.0-13.0,,,,EASY,,,,,2317,"<p>You responded correctly on 30% of the trials.</p>
      <p>Your average response time was 372ms.</p>
      <p>Press any key to begin Block 3!</p>",f,debrief,,,,,,,2021-11-14 23:31:30,24.4.120.49,"Mozilla/5.0 (Macintosh; Intel Mac OS X 10_15_7) AppleWebKit/605.1.15 (KHTML, like Gecko) Version/15.1 Safari/605.1.15",Macintosh,Safari,15.1,OS X,10_15_7,69aac57e16ab92fbf4ebb6c052416712
25,1,,html-button-response,127,313764,0.0-14.0,,,,EASY,,,,,1492.9999999999400,Block 3,0,,,,,,,,2021-11-14 23:31:30,24.4.120.49,"Mozilla/5.0 (Macintosh; Intel Mac OS X 10_15_7) AppleWebKit/605.1.15 (KHTML, like Gecko) Version/15.1 Safari/605.1.15",Macintosh,Safari,15.1,OS X,10_15_7,69aac57e16ab92fbf4ebb6c052416712
25,1,,image-keyboard-response,128,317268,0.0-15.0-0.0,,,,EASY,,,,,null,img/fixation.png,null,fixation,,,,,,3,2021-11-14 23:31:30,24.4.120.49,"Mozilla/5.0 (Macintosh; Intel Mac OS X 10_15_7) AppleWebKit/605.1.15 (KHTML, like Gecko) Version/15.1 Safari/605.1.15",Macintosh,Safari,15.1,OS X,10_15_7,69aac57e16ab92fbf4ebb6c052416712
25,1,,image-keyboard-response,129,317913,0.0-15.0-1.0,,,,EASY,,,,,641,img/flower_left.png,j,response,,,j,1,,3,2021-11-14 23:31:30,24.4.120.49,"Mozilla/5.0 (Macintosh; Intel Mac OS X 10_15_7) AppleWebKit/605.1.15 (KHTML, like Gecko) Version/15.1 Safari/605.1.15",Macintosh,Safari,15.1,OS X,10_15_7,69aac57e16ab92fbf4ebb6c052416712
25,1,,image-keyboard-response,130,318915,0.0-15.0-0.1,,,,EASY,,,,,null,img/fixation.png,null,fixation,,,,,,3,2021-11-14 23:31:30,24.4.120.49,"Mozilla/5.0 (Macintosh; Intel Mac OS X 10_15_7) AppleWebKit/605.1.15 (KHTML, like Gecko) Version/15.1 Safari/605.1.15",Macintosh,Safari,15.1,OS X,10_15_7,69aac57e16ab92fbf4ebb6c052416712
25,1,,image-keyboard-response,131,319382,0.0-15.0-1.1,,,,EASY,,,,,466,img/flower_right.png,f,response,,,f,1,,3,2021-11-14 23:31:30,24.4.120.49,"Mozilla/5.0 (Macintosh; Intel Mac OS X 10_15_7) AppleWebKit/605.1.15 (KHTML, like Gecko) Version/15.1 Safari/605.1.15",Macintosh,Safari,15.1,OS X,10_15_7,69aac57e16ab92fbf4ebb6c052416712
25,1,,image-keyboard-response,132,320634,0.0-15.0-0.2,,,,EASY,,,,,null,img/fixation.png,null,fixation,,,,,,3,2021-11-14 23:31:30,24.4.120.49,"Mozilla/5.0 (Macintosh; Intel Mac OS X 10_15_7) AppleWebKit/605.1.15 (KHTML, like Gecko) Version/15.1 Safari/605.1.15",Macintosh,Safari,15.1,OS X,10_15_7,69aac57e16ab92fbf4ebb6c052416712
25,1,,image-keyboard-response,133,320926,0.0-15.0-1.2,,,,EASY,,,,,291,img/flower_left.png,j,response,,,j,1,,3,2021-11-14 23:31:30,24.4.120.49,"Mozilla/5.0 (Macintosh; Intel Mac OS X 10_15_7) AppleWebKit/605.1.15 (KHTML, like Gecko) Version/15.1 Safari/605.1.15",Macintosh,Safari,15.1,OS X,10_15_7,69aac57e16ab92fbf4ebb6c052416712
25,1,,image-keyboard-response,134,321428,0.0-15.0-0.3,,,,EASY,,,,,null,img/fixation.png,null,fixation,,,,,,3,2021-11-14 23:31:30,24.4.120.49,"Mozilla/5.0 (Macintosh; Intel Mac OS X 10_15_7) AppleWebKit/605.1.15 (KHTML, like Gecko) Version/15.1 Safari/605.1.15",Macintosh,Safari,15.1,OS X,10_15_7,69aac57e16ab92fbf4ebb6c052416712
25,1,,image-keyboard-response,135,321847,0.0-15.0-1.3,,,,EASY,,,,,414,img/flower_left.png,f,response,,,j,0,,3,2021-11-14 23:31:30,24.4.120.49,"Mozilla/5.0 (Macintosh; Intel Mac OS X 10_15_7) AppleWebKit/605.1.15 (KHTML, like Gecko) Version/15.1 Safari/605.1.15",Macintosh,Safari,15.1,OS X,10_15_7,69aac57e16ab92fbf4ebb6c052416712
25,1,,image-keyboard-response,136,323350,0.0-15.0-0.4,,,,EASY,,,,,null,img/fixation.png,null,fixation,,,,,,3,2021-11-14 23:31:30,24.4.120.49,"Mozilla/5.0 (Macintosh; Intel Mac OS X 10_15_7) AppleWebKit/605.1.15 (KHTML, like Gecko) Version/15.1 Safari/605.1.15",Macintosh,Safari,15.1,OS X,10_15_7,69aac57e16ab92fbf4ebb6c052416712
25,1,,image-keyboard-response,137,323638,0.0-15.0-1.4,,,,EASY,,,,,284,img/flower_right.png,f,response,,,f,1,,3,2021-11-14 23:31:30,24.4.120.49,"Mozilla/5.0 (Macintosh; Intel Mac OS X 10_15_7) AppleWebKit/605.1.15 (KHTML, like Gecko) Version/15.1 Safari/605.1.15",Macintosh,Safari,15.1,OS X,10_15_7,69aac57e16ab92fbf4ebb6c052416712
25,1,,image-keyboard-response,138,324140,0.0-15.0-0.5,,,,EASY,,,,,null,img/fixation.png,null,fixation,,,,,,3,2021-11-14 23:31:30,24.4.120.49,"Mozilla/5.0 (Macintosh; Intel Mac OS X 10_15_7) AppleWebKit/605.1.15 (KHTML, like Gecko) Version/15.1 Safari/605.1.15",Macintosh,Safari,15.1,OS X,10_15_7,69aac57e16ab92fbf4ebb6c052416712
25,1,,image-keyboard-response,139,324599,0.0-15.0-1.5,,,,EASY,,,,,458,img/heart_right.png,j,response,,,j,1,,3,2021-11-14 23:31:30,24.4.120.49,"Mozilla/5.0 (Macintosh; Intel Mac OS X 10_15_7) AppleWebKit/605.1.15 (KHTML, like Gecko) Version/15.1 Safari/605.1.15",Macintosh,Safari,15.1,OS X,10_15_7,69aac57e16ab92fbf4ebb6c052416712
25,1,,image-keyboard-response,140,324851,0.0-15.0-0.6,,,,EASY,,,,,null,img/fixation.png,null,fixation,,,,,,3,2021-11-14 23:31:30,24.4.120.49,"Mozilla/5.0 (Macintosh; Intel Mac OS X 10_15_7) AppleWebKit/605.1.15 (KHTML, like Gecko) Version/15.1 Safari/605.1.15",Macintosh,Safari,15.1,OS X,10_15_7,69aac57e16ab92fbf4ebb6c052416712
25,1,,image-keyboard-response,141,325310,0.0-15.0-1.6,,,,EASY,,,,,459,img/flower_right.png,f,response,,,f,1,,3,2021-11-14 23:31:30,24.4.120.49,"Mozilla/5.0 (Macintosh; Intel Mac OS X 10_15_7) AppleWebKit/605.1.15 (KHTML, like Gecko) Version/15.1 Safari/605.1.15",Macintosh,Safari,15.1,OS X,10_15_7,69aac57e16ab92fbf4ebb6c052416712
25,1,,image-keyboard-response,142,327315,0.0-15.0-0.7,,,,EASY,,,,,null,img/fixation.png,null,fixation,,,,,,3,2021-11-14 23:31:30,24.4.120.49,"Mozilla/5.0 (Macintosh; Intel Mac OS X 10_15_7) AppleWebKit/605.1.15 (KHTML, like Gecko) Version/15.1 Safari/605.1.15",Macintosh,Safari,15.1,OS X,10_15_7,69aac57e16ab92fbf4ebb6c052416712
25,1,,image-keyboard-response,143,327678,0.0-15.0-1.7,,,,EASY,,,,,362,img/flower_left.png,f,response,,,j,0,,3,2021-11-14 23:31:30,24.4.120.49,"Mozilla/5.0 (Macintosh; Intel Mac OS X 10_15_7) AppleWebKit/605.1.15 (KHTML, like Gecko) Version/15.1 Safari/605.1.15",Macintosh,Safari,15.1,OS X,10_15_7,69aac57e16ab92fbf4ebb6c052416712
25,1,,image-keyboard-response,144,328680,0.0-15.0-0.8,,,,EASY,,,,,null,img/fixation.png,null,fixation,,,,,,3,2021-11-14 23:31:30,24.4.120.49,"Mozilla/5.0 (Macintosh; Intel Mac OS X 10_15_7) AppleWebKit/605.1.15 (KHTML, like Gecko) Version/15.1 Safari/605.1.15",Macintosh,Safari,15.1,OS X,10_15_7,69aac57e16ab92fbf4ebb6c052416712
25,1,,image-keyboard-response,145,329054,0.0-15.0-1.8,,,,EASY,,,,,373,img/heart_right.png,j,response,,,j,1,,3,2021-11-14 23:31:30,24.4.120.49,"Mozilla/5.0 (Macintosh; Intel Mac OS X 10_15_7) AppleWebKit/605.1.15 (KHTML, like Gecko) Version/15.1 Safari/605.1.15",Macintosh,Safari,15.1,OS X,10_15_7,69aac57e16ab92fbf4ebb6c052416712
25,1,,image-keyboard-response,146,329556,0.0-15.0-0.9,,,,EASY,,,,,null,img/fixation.png,null,fixation,,,,,,3,2021-11-14 23:31:30,24.4.120.49,"Mozilla/5.0 (Macintosh; Intel Mac OS X 10_15_7) AppleWebKit/605.1.15 (KHTML, like Gecko) Version/15.1 Safari/605.1.15",Macintosh,Safari,15.1,OS X,10_15_7,69aac57e16ab92fbf4ebb6c052416712
25,1,,image-keyboard-response,147,329919,0.0-15.0-1.9,,,,EASY,,,,,359,img/heart_left.png,f,response,,,f,1,,3,2021-11-14 23:31:30,24.4.120.49,"Mozilla/5.0 (Macintosh; Intel Mac OS X 10_15_7) AppleWebKit/605.1.15 (KHTML, like Gecko) Version/15.1 Safari/605.1.15",Macintosh,Safari,15.1,OS X,10_15_7,69aac57e16ab92fbf4ebb6c052416712
25,1,,html-keyboard-response,148,331544,0.0-16.0,,,,EASY,,,,,1622.9999999999400,"<p>You responded correctly on 80% of the trials.</p>
      <p>Your average response time was 416ms.</p>
      <p>Press any key to begin the final Block 4!</p>",f,debrief,,,,,,,2021-11-14 23:31:30,24.4.120.49,"Mozilla/5.0 (Macintosh; Intel Mac OS X 10_15_7) AppleWebKit/605.1.15 (KHTML, like Gecko) Version/15.1 Safari/605.1.15",Macintosh,Safari,15.1,OS X,10_15_7,69aac57e16ab92fbf4ebb6c052416712
25,1,,html-button-response,149,333433,0.0-17.0,,,,EASY,,,,,1888.0000000000600,Block 4,0,,,,,,,,2021-11-14 23:31:30,24.4.120.49,"Mozilla/5.0 (Macintosh; Intel Mac OS X 10_15_7) AppleWebKit/605.1.15 (KHTML, like Gecko) Version/15.1 Safari/605.1.15",Macintosh,Safari,15.1,OS X,10_15_7,69aac57e16ab92fbf4ebb6c052416712
25,1,,image-keyboard-response,150,337188,0.0-18.0-0.0,,,,EASY,,,,,null,img/fixation.png,null,fixation,,,,,,4,2021-11-14 23:31:30,24.4.120.49,"Mozilla/5.0 (Macintosh; Intel Mac OS X 10_15_7) AppleWebKit/605.1.15 (KHTML, like Gecko) Version/15.1 Safari/605.1.15",Macintosh,Safari,15.1,OS X,10_15_7,69aac57e16ab92fbf4ebb6c052416712
25,1,,image-keyboard-response,151,337591,0.0-18.0-1.0,,,,EASY,,,,,398,img/flower_left.png,f,response,,,j,0,,4,2021-11-14 23:31:30,24.4.120.49,"Mozilla/5.0 (Macintosh; Intel Mac OS X 10_15_7) AppleWebKit/605.1.15 (KHTML, like Gecko) Version/15.1 Safari/605.1.15",Macintosh,Safari,15.1,OS X,10_15_7,69aac57e16ab92fbf4ebb6c052416712
25,1,,image-keyboard-response,152,339593,0.0-18.0-0.1,,,,EASY,,,,,null,img/fixation.png,null,fixation,,,,,,4,2021-11-14 23:31:30,24.4.120.49,"Mozilla/5.0 (Macintosh; Intel Mac OS X 10_15_7) AppleWebKit/605.1.15 (KHTML, like Gecko) Version/15.1 Safari/605.1.15",Macintosh,Safari,15.1,OS X,10_15_7,69aac57e16ab92fbf4ebb6c052416712
25,1,,image-keyboard-response,153,339983,0.0-18.0-1.1,,,,EASY,,,,,388.9999999999420,img/heart_left.png,f,response,,,f,1,,4,2021-11-14 23:31:30,24.4.120.49,"Mozilla/5.0 (Macintosh; Intel Mac OS X 10_15_7) AppleWebKit/605.1.15 (KHTML, like Gecko) Version/15.1 Safari/605.1.15",Macintosh,Safari,15.1,OS X,10_15_7,69aac57e16ab92fbf4ebb6c052416712
25,1,,image-keyboard-response,154,340485,0.0-18.0-0.2,,,,EASY,,,,,null,img/fixation.png,null,fixation,,,,,,4,2021-11-14 23:31:30,24.4.120.49,"Mozilla/5.0 (Macintosh; Intel Mac OS X 10_15_7) AppleWebKit/605.1.15 (KHTML, like Gecko) Version/15.1 Safari/605.1.15",Macintosh,Safari,15.1,OS X,10_15_7,69aac57e16ab92fbf4ebb6c052416712
25,1,,image-keyboard-response,155,340918,0.0-18.0-1.2,,,,EASY,,,,,432.9999999999420,img/flower_right.png,j,response,,,f,0,,4,2021-11-14 23:31:30,24.4.120.49,"Mozilla/5.0 (Macintosh; Intel Mac OS X 10_15_7) AppleWebKit/605.1.15 (KHTML, like Gecko) Version/15.1 Safari/605.1.15",Macintosh,Safari,15.1,OS X,10_15_7,69aac57e16ab92fbf4ebb6c052416712
25,1,,image-keyboard-response,156,342424,0.0-18.0-0.3,,,,EASY,,,,,null,img/fixation.png,null,fixation,,,,,,4,2021-11-14 23:31:30,24.4.120.49,"Mozilla/5.0 (Macintosh; Intel Mac OS X 10_15_7) AppleWebKit/605.1.15 (KHTML, like Gecko) Version/15.1 Safari/605.1.15",Macintosh,Safari,15.1,OS X,10_15_7,69aac57e16ab92fbf4ebb6c052416712
25,1,,image-keyboard-response,157,342839,0.0-18.0-1.3,,,,EASY,,,,,413,img/flower_left.png,f,response,,,j,0,,4,2021-11-14 23:31:30,24.4.120.49,"Mozilla/5.0 (Macintosh; Intel Mac OS X 10_15_7) AppleWebKit/605.1.15 (KHTML, like Gecko) Version/15.1 Safari/605.1.15",Macintosh,Safari,15.1,OS X,10_15_7,69aac57e16ab92fbf4ebb6c052416712
25,1,,image-keyboard-response,158,344594,0.0-18.0-0.4,,,,EASY,,,,,null,img/fixation.png,null,fixation,,,,,,4,2021-11-14 23:31:30,24.4.120.49,"Mozilla/5.0 (Macintosh; Intel Mac OS X 10_15_7) AppleWebKit/605.1.15 (KHTML, like Gecko) Version/15.1 Safari/605.1.15",Macintosh,Safari,15.1,OS X,10_15_7,69aac57e16ab92fbf4ebb6c052416712
25,1,,image-keyboard-response,159,344970,0.0-18.0-1.4,,,,EASY,,,,,375,img/heart_left.png,f,response,,,f,1,,4,2021-11-14 23:31:30,24.4.120.49,"Mozilla/5.0 (Macintosh; Intel Mac OS X 10_15_7) AppleWebKit/605.1.15 (KHTML, like Gecko) Version/15.1 Safari/605.1.15",Macintosh,Safari,15.1,OS X,10_15_7,69aac57e16ab92fbf4ebb6c052416712
25,1,,image-keyboard-response,160,345222,0.0-18.0-0.5,,,,EASY,,,,,null,img/fixation.png,null,fixation,,,,,,4,2021-11-14 23:31:30,24.4.120.49,"Mozilla/5.0 (Macintosh; Intel Mac OS X 10_15_7) AppleWebKit/605.1.15 (KHTML, like Gecko) Version/15.1 Safari/605.1.15",Macintosh,Safari,15.1,OS X,10_15_7,69aac57e16ab92fbf4ebb6c052416712
25,1,,image-keyboard-response,161,345687,0.0-18.0-1.5,,,,EASY,,,,,465.0000000000580,img/flower_left.png,j,response,,,j,1,,4,2021-11-14 23:31:30,24.4.120.49,"Mozilla/5.0 (Macintosh; Intel Mac OS X 10_15_7) AppleWebKit/605.1.15 (KHTML, like Gecko) Version/15.1 Safari/605.1.15",Macintosh,Safari,15.1,OS X,10_15_7,69aac57e16ab92fbf4ebb6c052416712
25,1,,image-keyboard-response,162,346940,0.0-18.0-0.6,,,,EASY,,,,,null,img/fixation.png,null,fixation,,,,,,4,2021-11-14 23:31:30,24.4.120.49,"Mozilla/5.0 (Macintosh; Intel Mac OS X 10_15_7) AppleWebKit/605.1.15 (KHTML, like Gecko) Version/15.1 Safari/605.1.15",Macintosh,Safari,15.1,OS X,10_15_7,69aac57e16ab92fbf4ebb6c052416712
25,1,,image-keyboard-response,163,347295,0.0-18.0-1.6,,,,EASY,,,,,353,img/flower_left.png,f,response,,,j,0,,4,2021-11-14 23:31:30,24.4.120.49,"Mozilla/5.0 (Macintosh; Intel Mac OS X 10_15_7) AppleWebKit/605.1.15 (KHTML, like Gecko) Version/15.1 Safari/605.1.15",Macintosh,Safari,15.1,OS X,10_15_7,69aac57e16ab92fbf4ebb6c052416712
25,1,,image-keyboard-response,164,349047,0.0-18.0-0.7,,,,EASY,,,,,null,img/fixation.png,null,fixation,,,,,,4,2021-11-14 23:31:30,24.4.120.49,"Mozilla/5.0 (Macintosh; Intel Mac OS X 10_15_7) AppleWebKit/605.1.15 (KHTML, like Gecko) Version/15.1 Safari/605.1.15",Macintosh,Safari,15.1,OS X,10_15_7,69aac57e16ab92fbf4ebb6c052416712
25,1,,image-keyboard-response,165,349375,0.0-18.0-1.7,,,,EASY,,,,,324,img/heart_left.png,f,response,,,f,1,,4,2021-11-14 23:31:30,24.4.120.49,"Mozilla/5.0 (Macintosh; Intel Mac OS X 10_15_7) AppleWebKit/605.1.15 (KHTML, like Gecko) Version/15.1 Safari/605.1.15",Macintosh,Safari,15.1,OS X,10_15_7,69aac57e16ab92fbf4ebb6c052416712
25,1,,image-keyboard-response,166,349877,0.0-18.0-0.8,,,,EASY,,,,,null,img/fixation.png,null,fixation,,,,,,4,2021-11-14 23:31:30,24.4.120.49,"Mozilla/5.0 (Macintosh; Intel Mac OS X 10_15_7) AppleWebKit/605.1.15 (KHTML, like Gecko) Version/15.1 Safari/605.1.15",Macintosh,Safari,15.1,OS X,10_15_7,69aac57e16ab92fbf4ebb6c052416712
25,1,,image-keyboard-response,167,350239,0.0-18.0-1.8,,,,EASY,,,,,361,img/heart_right.png,j,response,,,j,1,,4,2021-11-14 23:31:30,24.4.120.49,"Mozilla/5.0 (Macintosh; Intel Mac OS X 10_15_7) AppleWebKit/605.1.15 (KHTML, like Gecko) Version/15.1 Safari/605.1.15",Macintosh,Safari,15.1,OS X,10_15_7,69aac57e16ab92fbf4ebb6c052416712
25,1,,image-keyboard-response,168,351743,0.0-18.0-0.9,,,,EASY,,,,,null,img/fixation.png,null,fixation,,,,,,4,2021-11-14 23:31:30,24.4.120.49,"Mozilla/5.0 (Macintosh; Intel Mac OS X 10_15_7) AppleWebKit/605.1.15 (KHTML, like Gecko) Version/15.1 Safari/605.1.15",Macintosh,Safari,15.1,OS X,10_15_7,69aac57e16ab92fbf4ebb6c052416712
25,1,,image-keyboard-response,169,352104,0.0-18.0-1.9,,,,EASY,,,,,360,img/heart_right.png,f,response,,,j,0,,4,2021-11-14 23:31:30,24.4.120.49,"Mozilla/5.0 (Macintosh; Intel Mac OS X 10_15_7) AppleWebKit/605.1.15 (KHTML, like Gecko) Version/15.1 Safari/605.1.15",Macintosh,Safari,15.1,OS X,10_15_7,69aac57e16ab92fbf4ebb6c052416712
25,1,,html-keyboard-response,170,353384,0.0-19.0,,,,EASY,,,,,1279,"<p>You responded correctly on 50% of the trials.</p>
      <p>Your average response time was 383ms.</p>
      <p>Press any key to finish the cognitive experiment!</p>",f,debrief,,,,,,,2021-11-14 23:31:30,24.4.120.49,"Mozilla/5.0 (Macintosh; Intel Mac OS X 10_15_7) AppleWebKit/605.1.15 (KHTML, like Gecko) Version/15.1 Safari/605.1.15",Macintosh,Safari,15.1,OS X,10_15_7,69aac57e16ab92fbf4ebb6c052416712
25,1,,html-button-response,171,361501,0.0-20.0,,,,EASY,,,,,8115.999999999940,"<p>Thank you for your participation! </p><p>The last thing will be a series of questions to capture demographic information.<p><p>When you are ready to answer a few questions, please press START.</p>",0,,,,,,,,2021-11-14 23:31:30,24.4.120.49,"Mozilla/5.0 (Macintosh; Intel Mac OS X 10_15_7) AppleWebKit/605.1.15 (KHTML, like Gecko) Version/15.1 Safari/605.1.15",Macintosh,Safari,15.1,OS X,10_15_7,69aac57e16ab92fbf4ebb6c052416712
25,1,,survey-multi-choice,172,366220,0.0-21.0,,,,EASY,,,,,2956,,"{""Q0"":""10000""}",income,[0],,,,,,2021-11-14 23:31:30,24.4.120.49,"Mozilla/5.0 (Macintosh; Intel Mac OS X 10_15_7) AppleWebKit/605.1.15 (KHTML, like Gecko) Version/15.1 Safari/605.1.15",Macintosh,Safari,15.1,OS X,10_15_7,69aac57e16ab92fbf4ebb6c052416712
25,1,,survey-multi-choice,173,368286,0.0-22.0,,,,EASY,,,,,2063,,"{""Q0"":""5""}",household_size,[0],,,,,,2021-11-14 23:31:30,24.4.120.49,"Mozilla/5.0 (Macintosh; Intel Mac OS X 10_15_7) AppleWebKit/605.1.15 (KHTML, like Gecko) Version/15.1 Safari/605.1.15",Macintosh,Safari,15.1,OS X,10_15_7,69aac57e16ab92fbf4ebb6c052416712
25,1,,html-button-response,174,370367,0.0-23.0,,,,EASY,,,,,2076,<p>Thanks! You have finished the entire study.</p><p>Please press FINISH to save your data and return to Prolific for compensation.</p>,0,,,,,,,,2021-11-14 23:31:30,24.4.120.49,"Mozilla/5.0 (Macintosh; Intel Mac OS X 10_15_7) AppleWebKit/605.1.15 (KHTML, like Gecko) Version/15.1 Safari/605.1.15",Macintosh,Safari,15.1,OS X,10_15_7,69aac57e16ab92fbf4ebb6c052416712